"Time (s)","Acceleration x (m/s^2)","Acceleration y (m/s^2)","Acceleration z (m/s^2)","Absolute acceleration (m/s^2)"
9.772257000E-3,-1.532289028E0,3.983951569E0,8.791508675E0,9.772942471E0
1.480766500E-2,-1.733402014E0,3.993528366E0,8.820239067E0,9.836135855E0
1.984307300E-2,-1.790862918E0,4.089296341E0,8.973467827E0,1.002260741E1
2.487848200E-2,-1.982398987E0,4.299986362E0,9.030928612E0,1.019693386E1
2.988337200E-2,-1.963245392E0,4.347870350E0,8.848969460E0,1.005298809E1
3.491878000E-2,-2.049436569E0,4.520252705E0,8.925583839E0,1.021268435E1
3.995418800E-2,-2.317587137E0,4.826710701E0,9.232041359E0,1.067234435E1
4.495907800E-2,-2.394201756E0,4.884171486E0,9.595960617E0,1.103040313E1
4.999448700E-2,-2.384624958E0,4.932055473E0,9.672574997E0,1.111621853E1
5.502989500E-2,-2.394201756E0,5.046977043E0,9.423578262E0,1.095481659E1
6.006530300E-2,-2.422932148E0,4.951209068E0,9.442731857E0,1.093390399E1
6.510071100E-2,-2.940079689E0,4.673481941E0,1.092713642E1,1.224286782E1
7.010560200E-2,-5.037400246E0,4.635174274E0,1.436521053E1,1.591287263E1
7.514101000E-2,-4.730942726E0,5.995080948E0,1.433648014E1,1.624369039E1
8.017641800E-2,-5.717353821E0,5.640739441E0,1.196143150E1,1.440770349E1
8.521182600E-2,-4.003105164E0,5.334281445E0,1.040041256E1,1.235507956E1
9.024723400E-2,-2.662352324E0,5.085284233E0,9.452308655E0,1.105867870E1
9.528264300E-2,-1.982398987E0,4.884171486E0,8.532935143E0,1.002975668E1
1.002875320E-1,-1.417367458E0,4.711789131E0,7.671022415E0,9.113422640E0
1.053229410E-1,-1.091755986E0,4.481945515E0,7.220912457E0,8.568625528E0
1.103583490E-1,-7.757213712E-1,4.156333923E0,7.163451672E0,8.318166576E0
1.153937580E-1,-1.053448796E0,3.974374771E0,7.192182064E0,8.284497090E0
1.204291650E-1,-1.101332784E0,4.089296341E0,7.345410824E0,8.478817054E0
1.254340560E-1,-1.177947283E0,4.070142746E0,7.240066051E0,8.388812681E0
1.304694640E-1,-1.158793569E0,4.242525578E0,7.240066051E0,8.471149995E0
1.355048720E-1,-1.177947283E0,4.328716755E0,7.201758862E0,8.484732126E0
1.405097620E-1,-1.149216771E0,4.462791920E0,7.163451672E0,8.517760900E0
1.455451710E-1,-1.216254473E0,4.510675907E0,7.144298077E0,8.536185746E0
1.505805790E-1,-1.302445769E0,4.539406300E0,7.144298077E0,8.564086031E0
1.556159860E-1,-1.369483352E0,4.558559895E0,7.105990410E0,8.552838866E0
1.606208770E-1,-1.484405041E0,4.558559895E0,7.153874874E0,8.611727606E0
1.656562860E-1,-1.455674648E0,4.596867085E0,7.259219646E0,8.714725787E0
1.706916940E-1,-1.426944256E0,4.654327869E0,7.374141216E0,8.836113201E0
1.757271010E-1,-1.398213744E0,4.529829502E0,7.508216381E0,8.879621063E0
1.807319920E-1,-1.446097851E0,4.654327869E0,7.642292023E0,9.064137812E0
1.857674010E-1,-1.465251446E0,4.548983097E0,7.872135162E0,9.209273643E0
1.908028080E-1,-1.503558636E0,4.501099110E0,7.977479935E0,9.282282471E0
1.958076990E-1,-1.561019540E0,4.290409565E0,8.169015884E0,9.358269966E0
2.008431070E-1,-1.561019540E0,4.261679173E0,8.408436775E0,9.555129532E0
2.058785160E-1,-1.541865945E0,4.156333923E0,8.686163902E0,9.752020591E0
2.109139230E-1,-1.493981838E0,4.003105164E0,8.963891029E0,9.930164906E0
2.159188140E-1,-1.302445769E0,3.849876404E0,9.241618156E0,1.009581198E1
2.209542220E-1,-1.168370485E0,3.782838583E0,9.538499832E0,1.032753293E1
2.259896300E-1,-1.072602391E0,3.725377798E0,9.758766174E0,1.050059202E1
2.310250380E-1,-9.768342972E-1,3.667917013E0,9.969455719E0,1.066760834E1
2.360299290E-1,-8.714894056E-1,3.600879431E0,1.006522369E1,1.072541628E1
2.410653370E-1,-7.948749661E-1,3.495534420E0,1.011310768E1,1.072965675E1
2.461007450E-1,-6.033388376E-1,3.495534420E0,1.023760605E1,1.083472917E1
2.511361530E-1,-5.554547906E-1,3.505111217E0,1.026633644E1,1.086241219E1
2.561715610E-1,-5.267243981E-1,3.418920040E0,1.018014526E1,1.075182824E1
2.611764510E-1,-4.309563041E-1,3.332728863E0,1.021845245E1,1.075683855E1
2.662118600E-1,-3.447650373E-1,3.332728863E0,1.011310768E1,1.065367972E1
2.712472680E-1,-2.681505978E-1,3.332728863E0,1.000776291E1,1.055150723E1
2.762521590E-1,-1.723825186E-1,3.294421434E0,9.940725327E0,1.047382205E1
2.812875660E-1,0.000000000E0,3.342305660E0,9.816226959E0,1.036963446E1
2.863229750E-1,4.788403213E-2,3.313575268E0,9.777919769E0,1.032423309E1
2.913583830E-1,8.619125932E-2,3.313575268E0,9.615114212E0,1.017042926E1
2.963632730E-1,1.244984865E-1,3.428496838E0,9.490615845E0,1.009167377E1
3.013986810E-1,1.723825186E-1,3.371036053E0,9.414001465E0,1.000085113E1
3.064340900E-1,1.340752989E-1,3.284844637E0,9.184157372E0,9.754841213E0
3.114694980E-1,1.149216816E-1,3.351882458E0,9.011775017E0,9.615633726E0
3.164743880E-1,1.436520964E-1,3.399766445E0,8.820239067E0,9.453870372E0
3.215097960E-1,1.244984865E-1,3.342305660E0,8.762778282E0,9.379381121E0
3.265452050E-1,6.703764945E-2,3.342305660E0,8.590395927E0,9.217939215E0
3.315500950E-1,5.746084079E-2,3.409343243E0,8.590395927E0,9.242392833E0
3.365855030E-1,-7.661445439E-2,3.418920040E0,8.647856712E0,9.299479003E0
3.416209110E-1,1.628057212E-1,3.007117271E0,9.212887764E0,9.692603414E0
3.466563200E-1,8.523358107E-1,2.451662540E0,1.031422138E1,1.063580219E1
3.516612090E-1,7.469909191E-1,2.633621931E0,9.931148529E0,1.030153731E1
3.566966180E-1,6.320692301E-1,2.509123325E0,9.806650162E0,1.014226793E1
3.617320260E-1,9.864110947E-1,2.298433542E0,1.015141487E1,1.045500012E1
3.667369170E-1,1.254561663E0,2.126051188E0,1.031422138E1,1.060552598E1
3.717723240E-1,1.417367458E0,2.078166962E0,1.032379818E1,1.062584196E1
3.768077330E-1,1.312022567E0,2.020706177E0,1.025675964E1,1.053592782E1
3.818431410E-1,1.216254473E0,2.030282974E0,1.028549004E1,1.055427066E1
3.868480310E-1,1.244984865E0,2.135627985E0,1.030464458E1,1.059700874E1
3.918834390E-1,1.110909581E0,2.260126352E0,1.033337498E1,1.063583234E1
3.969188480E-1,9.289502501E-1,2.327163935E0,1.037168217E1,1.067007177E1
4.019542560E-1,7.852981687E-1,2.528276920E0,1.034295177E1,1.067640056E1
4.069591460E-1,5.171475410E-1,2.662352324E0,1.036210537E1,1.071115256E1
4.119945540E-1,2.681505978E-1,2.738966703E0,1.038125896E1,1.073985014E1
4.170299630E-1,7.661445439E-2,2.585737944E0,1.041956615E1,1.073588698E1
4.220348530E-1,-1.915361360E-2,2.643198729E0,1.058237171E1,1.090749547E1
4.270702610E-1,-3.830722719E-2,2.518700123E0,1.083136845E1,1.112042536E1
4.321056690E-1,1.915361360E-2,2.518700123E0,1.099417400E1,1.127901056E1
4.371410780E-1,5.746084079E-2,2.585737944E0,1.110909557E1,1.140619774E1
4.421459670E-1,4.788403213E-2,2.595314741E0,1.124317074E1,1.153892715E1
4.471813760E-1,0.000000000E0,2.633621931E0,1.126232433E1,1.156615381E1
4.522167840E-1,4.788403213E-2,2.624045134E0,1.124317074E1,1.154542308E1
4.572521920E-1,9.576806426E-2,2.671929121E0,1.118570995E1,1.150080362E1
4.622876000E-1,2.873042040E-2,2.662352324E0,1.113782597E1,1.145164235E1
4.672924910E-1,1.915361360E-2,2.633621931E0,1.105163479E1,1.136111627E1
4.723278990E-1,3.830722719E-2,2.738966703E0,1.090798283E1,1.124666597E1
4.773633070E-1,1.628057212E-1,2.748543501E0,1.072602367E1,1.107377898E1
4.823681970E-1,2.298433632E-1,2.806004286E0,1.062067890E1,1.098750692E1
4.874036060E-1,3.447650373E-1,2.834734917E0,1.044829655E1,1.083150431E1
4.924390140E-1,4.405331016E-1,2.844311714E0,1.036210537E1,1.075441334E1
4.974744220E-1,2.968810201E-1,2.729389906E0,1.033337498E1,1.069188225E1
5.024793120E-1,3.160346150E-1,2.825158119E0,1.021845245E1,1.060651530E1
5.075147210E-1,3.064578176E-1,2.844311714E0,1.020887566E1,1.060213034E1
5.125501280E-1,1.628057212E-1,2.901772499E0,1.020887566E1,1.061451513E1
5.175550190E-1,2.202665508E-1,2.920926094E0,1.015141487E1,1.056558330E1
5.225904270E-1,2.873041928E-1,2.930502892E0,9.940725327E0,1.036766179E1
5.276258360E-1,3.351882398E-1,2.968810081E0,9.500192642E0,9.958907806E0
5.326612430E-1,5.650315881E-1,2.978386879E0,9.260771751E0,9.744328737E0
5.376661340E-1,7.086837292E-1,2.997540474E0,9.203310966E0,9.705071575E0
5.427015420E-1,8.810662031E-1,3.016694069E0,9.155426979E0,9.679801854E0
5.477369500E-1,1.216254473E0,2.863465309E0,9.145850182E0,9.660501232E0
5.527723580E-1,1.417367458E0,2.825158119E0,9.308655739E0,9.830641921E0
5.577772490E-1,1.340752959E0,2.853888512E0,9.672574997E0,1.017354438E1
5.628126570E-1,1.197100878E0,3.055001259E0,9.844957352E0,1.037734400E1
5.678480650E-1,9.002198577E-1,3.198653460E0,1.023760605E1,1.076338039E1
5.728529560E-1,5.458779931E-1,3.399766445E0,1.049618053E1,1.104654699E1
5.778883640E-1,1.915361285E-1,3.438073635E0,1.077390766E1,1.131079673E1
5.829237710E-1,1.532289088E-1,3.505111217E0,1.104205799E1,1.158604024E1
5.879591800E-1,3.734954596E-1,3.600879431E0,1.114740276E1,1.172051278E1
5.929640710E-1,6.129156351E-1,3.801992416E0,1.115697956E1,1.180292357E1
5.979994790E-1,6.224924326E-1,3.734954596E0,1.110909557E1,1.173666848E1
6.030348860E-1,4.884171486E-1,3.562572241E0,1.112824917E1,1.169480234E1
6.080397770E-1,5.171475410E-1,3.514688015E0,1.115697956E1,1.170891397E1
6.130751860E-1,5.937620401E-1,3.600879431E0,1.108994198E1,1.167500317E1
6.181105930E-1,4.501099288E-1,3.677493811E0,1.091755962E1,1.152907923E1
6.231154840E-1,1.436520964E-1,3.801992416E0,1.092713642E1,1.157057011E1
6.281508920E-1,-3.160346150E-1,3.878606796E0,1.059194851E1,1.128418547E1
6.331863010E-1,-3.447650373E-1,3.533841610E0,9.959878922E0,1.057383977E1
6.382217080E-1,8.906430602E-1,2.461239338E0,9.461885452E0,9.817240980E0
6.432265990E-1,7.469909191E-1,2.815581083E0,9.212887764E0,9.662442405E0
6.482620070E-1,1.915361285E-1,3.361459255E0,1.115697956E1,1.165393870E1
6.532974150E-1,5.458779931E-1,2.930502892E0,1.154962921E1,1.192810819E1
6.583328230E-1,9.002198577E-1,3.514688015E0,1.172201157E1,1.227065535E1
6.633377140E-1,1.369483352E0,4.280832767E0,1.150174522E1,1.234873099E1
6.683731220E-1,1.513135433E0,4.568136692E0,1.169328117E1,1.264477269E1
6.734085300E-1,1.312022567E0,4.501099110E0,1.164539719E1,1.255374733E1
6.784134200E-1,1.005564690E0,3.993528366E0,1.156878281E1,1.227990899E1
6.834488290E-1,4.884171486E-1,3.457227230E0,1.144428444E1,1.196505820E1
6.884842370E-1,-3.160346150E-1,3.179499865E0,1.172201157E1,1.214967705E1
6.935196450E-1,-9.097966552E-1,3.303998232E0,1.258392429E1,1.304221166E1
6.985245350E-1,-8.236053586E-1,3.409343243E0,1.275630665E1,1.322971301E1
7.035599440E-1,-1.675941229E0,3.150769472E0,1.287122822E1,1.335682010E1
7.085953510E-1,-2.863465309E0,2.873042107E0,1.305318737E1,1.366892479E1
7.136002420E-1,-4.041412354E0,2.461239338E0,1.305318737E1,1.388439460E1
7.186356500E-1,-4.721365929E0,1.915361404E0,1.314895535E1,1.410159325E1
7.236710590E-1,-4.769249916E0,1.714248419E0,1.345541382E1,1.437819715E1
7.287064660E-1,-4.357447147E0,1.656787634E0,1.345541382E1,1.424010014E1
7.337113570E-1,-3.246537447E0,2.049436569E0,1.376187134E1,1.428738249E1
7.387467650E-1,-2.614468336E0,2.164358377E0,1.380975533E1,1.422073254E1
7.437821730E-1,-2.365471363E0,2.212242365E0,1.383848572E1,1.421242970E1
7.488175810E-1,-2.126051188E0,2.346317768E0,1.356075859E1,1.392549727E1
7.538224720E-1,-1.857900500E0,2.691082716E0,1.322556973E1,1.362385463E1
7.588578800E-1,-1.570596337E0,2.930502892E0,1.289995861E1,1.332154466E1
7.638932880E-1,-1.024718285E0,3.189076662E0,1.251688671E1,1.295734195E1
7.689286960E-1,-5.554547906E-1,3.150769472E0,1.215296745E1,1.256704007E1
7.739335870E-1,1.532289088E-1,3.169923067E0,1.184650993E1,1.226424433E1
7.789689940E-1,7.374141216E-1,3.208230257E0,1.159751320E1,1.205565566E1
7.840044030E-1,1.130063176E0,2.834734917E0,1.135809326E1,1.176091184E1
7.890398110E-1,1.503558636E0,2.748543501E0,1.133893967E1,1.176378905E1
7.940447020E-1,2.059013367E0,2.681505919E0,1.142513084E1,1.191484892E1
7.990801090E-1,2.566584110E0,2.719813108E0,1.165497398E1,1.224022695E1
8.041155180E-1,2.748543501E0,2.748543501E0,1.189439392E1,1.251341638E1
8.091509260E-1,2.585737944E0,2.614468336E0,1.225831223E1,1.279795702E1
8.141558160E-1,2.145204782E0,2.595314741E0,1.276588345E1,1.320247486E1
8.191912240E-1,1.551442742E0,2.652775526E0,1.332133865E1,1.367121999E1
8.242266330E-1,8.906430602E-1,2.844311714E0,1.387679291E1,1.419326374E1
8.292315230E-1,3.830722570E-1,2.987963676E0,1.446097851E1,1.477141059E1
8.342669310E-1,-1.244984865E-1,3.169923067E0,1.505473995E1,1.538535366E1
8.393023390E-1,-6.895300746E-1,3.323152065E0,1.541865921E1,1.578777512E1
8.443377480E-1,-1.264138460E0,3.418920040E0,1.575384712E1,1.617005750E1
8.493426370E-1,-1.867477298E0,3.485957623E0,1.584003830E1,1.632624223E1
8.543780460E-1,-2.202665567E0,3.591302633E0,1.568680954E1,1.624269632E1
8.594134540E-1,-2.461239338E0,3.552995205E0,1.519839191E1,1.580103132E1
8.644183450E-1,-2.509123325E0,3.409343243E0,1.453759289E1,1.514136481E1
8.694537520E-1,-2.231395960E0,3.284844637E0,1.375229454E1,1.431415165E1
8.744891610E-1,-1.857900500E0,3.265691042E0,1.314895535E1,1.367521696E1
8.795245690E-1,-1.474828243E0,3.351882458E0,1.282334423E1,1.333598109E1
8.845294600E-1,-1.063025594E0,3.438073635E0,1.268926907E1,1.318969003E1
8.895648670E-1,-9.959878922E-1,3.476380825E0,1.250730991E1,1.301960125E1
8.946002760E-1,-1.082179189E0,3.581725836E0,1.232535076E1,1.288076640E1
8.996356840E-1,-1.244984865E0,3.620033026E0,1.209550667E1,1.268683995E1
9.046405740E-1,-1.359906554E0,3.658340216E0,1.174116516E1,1.237286379E1
9.096759820E-1,-1.302445769E0,3.706224203E0,1.144428444E1,1.209975657E1
9.147113910E-1,-1.158793569E0,3.600879431E0,1.108036518E1,1.170827177E1
9.197467990E-1,-1.149216771E0,3.562572241E0,1.056321812E1,1.120688169E1
9.247516890E-1,-1.082179189E0,3.591302633E0,1.009395409E1,1.076830885E1
9.297870970E-1,-9.864110947E-1,3.658340216E0,9.672574997E0,1.038822252E1
9.348225060E-1,-9.193734527E-1,3.639186621E0,9.299078941E0,1.002805046E1
9.398273960E-1,-1.024718285E0,3.687070608E0,9.002198219E0,9.781825495E0
9.448628040E-1,-1.158793569E0,3.763684988E0,8.753201485E0,9.598263565E0
9.498982120E-1,-1.551442742E0,3.801992416E0,8.456320763E0,9.400610712E0
9.549336210E-1,-2.049436569E0,3.840299606E0,8.303091049E0,9.374935322E0
9.599385110E-1,-2.710236311E0,3.897760391E0,8.082824707E0,9.373898451E0
9.649739190E-1,-3.457227230E0,4.127603531E0,7.862558365E0,9.529394266E0
9.700093270E-1,-4.242525578E0,4.252102375E0,7.671022415E0,9.742893963E0
9.750447350E-1,-4.855441093E0,4.347870350E0,7.345410824E0,9.820099030E0
9.800496260E-1,-5.209783077E0,4.367023945E0,7.019799232E0,9.771914813E0
9.850850340E-1,-5.372588634E0,4.261679173E0,6.876147270E0,9.711231605E0
9.901204420E-1,-5.353435040E0,4.299986362E0,6.818686485E0,9.676964133E0
9.951558500E-1,-5.142745018E0,4.242525578E0,6.962338448E0,9.639554256E0
1.000160741E0,-4.922478676E0,4.299986362E0,7.192182064E0,9.718444416E0
1.005196149E0,-4.730942726E0,4.299986362E0,7.326257229E0,9.723463723E0
1.010231557E0,-4.548983097E0,4.386177540E0,7.441178799E0,9.762322600E0
1.015266965E0,-4.309563160E0,4.367023945E0,7.565677166E0,9.740775315E0
1.020271855E0,-4.280832767E0,4.443638325E0,7.747636795E0,9.904409455E0
1.025307264E0,-4.108449936E0,4.290409565E0,7.709329605E0,9.732457967E0
1.030342671E0,-3.849876404E0,4.290409565E0,7.632715225E0,9.564910050E0
1.035378080E0,-3.505111217E0,4.319139957E0,7.220912457E0,9.114952075E0
1.040382970E0,-2.844311714E0,4.175487995E0,6.627150536E0,8.333302667E0
1.045418379E0,-2.030282974E0,3.945644379E0,5.841852188E0,7.336034045E0
1.050453786E0,-1.091755986E0,3.715801001E0,5.056553841E0,6.369289203E0
1.055489195E0,-1.819593310E-1,3.581725836E0,4.290409565E0,5.591912320E0
1.060494085E0,6.799532771E-1,3.208230257E0,3.591302633E0,4.863386931E0
1.065529493E0,1.273715258E0,2.853888512E0,2.930502892E0,4.284259258E0
1.070564901E0,1.771709204E0,2.480392933E0,2.442085743E0,3.905775900E0
1.075600310E0,2.030282974E0,1.972822189E0,1.886630893E0,3.401977729E0
1.080605200E0,2.269703150E0,1.350329757E0,1.139639974E0,2.876407848E0
1.085640608E0,2.853888512E0,9.385270476E-1,6.703764796E-1,3.078135358E0
1.090676016E0,3.256114244E0,6.224924326E-1,2.011129409E-1,3.321177986E0
1.095711425E0,3.390189648E0,2.585737705E-1,-7.661445439E-2,3.400899295E0
1.100716314E0,2.853888512E0,1.819593310E-1,-2.873041928E-1,2.874079424E0
1.105751723E0,-3.064578176E-1,1.819593310E0,-6.991068721E-1,1.973217329E0
1.110787131E0,-8.427590132E-1,8.714894056E-1,-1.015141487E0,1.581217498E0
1.115822540E0,-2.489969730E0,1.666364431E0,-1.168370485E0,3.215868354E0
1.120827429E0,-3.840299606E0,2.442085743E0,-9.576807022E-1,4.650681259E0
1.125862838E0,-3.830722809E0,2.097320795E0,-1.130063176E0,4.511123423E0
1.130898246E0,-3.572149038E0,1.618480325E0,-1.197100878E0,4.100338745E0
1.135903136E0,-2.327163935E0,9.768342972E-1,-8.810662031E-1,2.673233038E0
1.140938544E0,-1.273715258E0,6.129156351E-1,-3.830722570E-1,1.464500081E0
1.145973953E0,-1.024718285E0,3.447650373E-1,-2.298433632E-1,1.105322788E0
1.151009361E0,-6.895300746E-1,-2.106897533E-1,-9.576806426E-2,7.273330860E-1
1.156014251E0,-4.213795066E-1,-7.565677166E-1,3.830722719E-2,8.668464928E-1
1.161049659E0,-3.734954596E-1,-6.895300746E-1,-3.830722719E-2,7.851229367E-1
1.166085068E0,-3.447650373E-1,-7.948749661E-1,9.576806799E-3,8.664761151E-1
1.171120476E0,-4.022258818E-1,-7.852981687E-1,-9.576806799E-3,8.823664709E-1
1.176125366E0,-4.022258818E-1,-8.427590132E-1,-1.915361360E-2,9.340210250E-1
1.181160774E0,-3.639186621E-1,-8.331822157E-1,1.915361360E-2,9.093933462E-1
1.186196183E0,-4.596867263E-1,-8.523358107E-1,1.915361360E-2,9.685840601E-1
1.191231590E0,-3.926490843E-1,-7.948749661E-1,4.788403213E-2,8.878583196E-1
1.196236481E0,-3.926490843E-1,-9.002198577E-1,9.576806799E-3,9.821714773E-1
1.201271889E0,-4.501099288E-1,-8.331822157E-1,-2.873042040E-2,9.474265088E-1
1.206307298E0,-4.501099288E-1,-8.619126081E-1,-1.915361360E-2,9.725529050E-1
1.211342705E0,-4.979939461E-1,-8.906430602E-1,9.576806799E-3,1.020458106E0
1.216347596E0,-3.926490843E-1,-8.906430602E-1,-1.915361360E-2,9.735426159E-1
1.221383004E0,-3.926490843E-1,-8.427590132E-1,-2.873042040E-2,9.301835812E-1
1.226418412E0,-4.309563041E-1,-9.097966552E-1,-7.661445439E-2,1.009615305E0
1.231453820E0,-4.405331016E-1,-9.097966552E-1,-9.576806799E-3,1.010886286E0
1.236458711E0,-4.022258818E-1,-9.289502501E-1,2.873042040E-2,1.012699197E0
1.241494119E0,-4.501099288E-1,-9.385270476E-1,-3.830722719E-2,1.041585047E0
1.246529527E0,-4.309563041E-1,-9.002198577E-1,-2.873042040E-2,9.984711139E-1
1.251564935E0,-4.788403511E-1,-9.193734527E-1,6.703764945E-2,1.038763531E0
1.256569826E0,-3.256114423E-1,-9.481038451E-1,-2.873042040E-2,1.002870455E0
1.261605233E0,-4.405331016E-1,-9.576807022E-1,-9.576806799E-3,1.054188530E0
1.266640642E0,-4.979939461E-1,-9.002198577E-1,2.873042040E-2,1.029183754E0
1.271676050E0,-4.405331016E-1,-9.959878922E-1,9.576806799E-3,1.089106519E0
1.276680941E0,-4.405331016E-1,-9.385270476E-1,-9.576806799E-3,1.036819246E0
1.281716348E0,-4.405331016E-1,-1.024718285E0,2.873042040E-2,1.115769875E0
1.286751757E0,-4.309563041E-1,-1.024718285E0,-7.661445439E-2,1.114289313E0
1.291787165E0,-3.734954596E-1,-9.768342972E-1,3.830722719E-2,1.046504442E0
1.296792055E0,-4.692635238E-1,-9.959878922E-1,5.746084079E-2,1.102498020E0
1.301827463E0,-4.309563041E-1,-1.005564690E0,-9.576806799E-3,1.094063708E0
1.306862872E0,-4.309563041E-1,-1.005564690E0,2.873042040E-2,1.094398976E0
1.311898280E0,-4.118026793E-1,-1.043871999E0,4.788403213E-2,1.123184347E0
1.316903170E0,-4.884171486E-1,-9.959878922E-1,4.788403213E-2,1.110331515E0
1.321938578E0,-3.734954596E-1,-1.053448796E0,9.576806799E-3,1.117740999E0
1.326973987E0,-4.213795066E-1,-1.063025594E0,3.830722719E-2,1.144137905E0
1.332009395E0,-4.022258818E-1,-1.043871999E0,3.830722719E-2,1.119339919E0
1.337014285E0,-3.830722570E-1,-1.082179189E0,1.915361360E-2,1.148138934E0
1.342049693E0,-3.926490843E-1,-1.091755986E0,-4.788403213E-2,1.161205114E0
1.347085102E0,-3.639186621E-1,-1.053448796E0,0.000000000E0,1.114536298E0
1.352120509E0,-3.639186621E-1,-1.082179189E0,-5.746084079E-2,1.143175550E0
1.357125400E0,-4.022258818E-1,-1.034295082E0,-2.873042040E-2,1.110124954E0
1.362160808E0,-3.351882398E-1,-1.110909581E0,-2.873042040E-2,1.160731102E0
1.367196217E0,-3.734954596E-1,-1.072602391E0,-7.661445439E-2,1.138351669E0
1.372231624E0,-4.118026793E-1,-1.053448796E0,-7.661445439E-2,1.133669082E0
1.377236515E0,-3.734954596E-1,-1.053448796E0,-6.703764945E-2,1.119708565E0
1.382271923E0,-3.447650373E-1,-1.072602391E0,-6.703764945E-2,1.128642046E0
1.387307331E0,-3.447650373E-1,-1.082179189E0,-3.830722719E-2,1.136416372E0
1.392342739E0,-3.734954596E-1,-1.110909581E0,-5.746084079E-2,1.173422645E0
1.397347630E0,-3.447650373E-1,-1.110909581E0,-9.576806426E-2,1.167113769E0
1.402383038E0,-3.830722570E-1,-1.091755986E0,-1.053448766E-1,1.161797328E0
1.407418446E0,-3.351882398E-1,-1.120486379E0,-1.149216816E-1,1.175179933E0
1.412453854E0,-3.926490843E-1,-1.043871999E0,-1.436520964E-1,1.124490097E0
1.417458745E0,-3.543418646E-1,-1.120486379E0,-9.576806426E-2,1.179075657E0
1.422494152E0,-3.543418646E-1,-1.139639974E0,-1.819593310E-1,1.207247541E0
1.427529561E0,-3.639186621E-1,-1.091755986E0,-1.532289088E-1,1.160968141E0
1.432564969E0,-3.064578176E-1,-1.139639974E0,-2.394201756E-1,1.204166801E0
1.437569860E0,-2.777273953E-1,-1.072602391E0,-1.915361285E-1,1.124408504E0
1.442605267E0,-2.777273953E-1,-1.082179189E0,-2.298433632E-1,1.140645552E0
1.447640676E0,-3.256114423E-1,-1.168370485E0,-2.585737705E-1,1.240150312E0
1.452676084E0,-2.585737705E-1,-1.120486379E0,-2.777273953E-1,1.182997306E0
1.457680974E0,-3.543418646E-1,-1.197100878E0,-2.873041928E-1,1.281074692E0
1.462716382E0,-3.160346150E-1,-1.139639974E0,-3.830722570E-1,1.243141787E0
1.467751791E0,-3.543418646E-1,-1.110909581E0,-3.351882398E-1,1.213272192E0
1.472787199E0,-3.351882398E-1,-1.177947283E0,-3.543418646E-1,1.274938867E0
1.477822606E0,-3.543418646E-1,-1.197100878E0,-4.118026793E-1,1.314606449E0
1.482827497E0,-2.489969730E-1,-1.082179189E0,-3.830722570E-1,1.174672569E0
1.487862906E0,-3.543418646E-1,-1.120486379E0,-4.692635238E-1,1.265407498E0
1.492898314E0,-3.064578176E-1,-1.197100878E0,-4.596867263E-1,1.318438012E0
1.497903204E0,-3.160346150E-1,-1.139639974E0,-4.501099288E-1,1.265407482E0
1.502938612E0,-3.447650373E-1,-1.168370485E0,-5.363011956E-1,1.331003942E0
1.507974021E0,-2.968810201E-1,-1.120486379E0,-5.363011956E-1,1.277202818E0
1.513009428E0,-3.160346150E-1,-1.168370485E0,-6.033388376E-1,1.352399801E0
1.518014319E0,-3.256114423E-1,-1.168370485E0,-5.554547906E-1,1.334032393E0
1.523049727E0,-3.447650373E-1,-1.197100878E0,-5.937620401E-1,1.380024204E0
1.528085135E0,-3.543418646E-1,-1.130063176E0,-6.895300746E-1,1.370420615E0
1.533120543E0,-3.351882398E-1,-1.063025594E0,-6.991068721E-1,1.315722230E0
1.538125434E0,-3.543418646E-1,-1.130063176E0,-7.565677166E-1,1.405345384E0
1.543160842E0,-3.256114423E-1,-1.034295082E0,-7.182605267E-1,1.300648804E0
1.548196249E0,-3.639186621E-1,-1.130063176E0,-7.757213712E-1,1.418176019E0
1.553231658E0,-2.873041928E-1,-1.072602391E0,-8.140285611E-1,1.376830450E0
1.558236549E0,-3.543418646E-1,-1.130063176E0,-8.714894056E-1,1.470406312E0
1.563271957E0,-3.926490843E-1,-1.034295082E0,-9.002198577E-1,1.426301305E0
1.568307364E0,-3.830722570E-1,-1.091755986E0,-9.385270476E-1,1.489801499E0
1.573342773E0,-3.639186621E-1,-1.130063176E0,-9.385270476E-1,1.513377875E0
1.578347664E0,-3.639186621E-1,-1.024718285E0,-9.289502501E-1,1.430186324E0
1.583383071E0,-4.022258818E-1,-1.063025594E0,-1.024718285E0,1.530312594E0
1.588418479E0,-4.118026793E-1,-1.005564690E0,-1.053448796E0,1.513438521E0
1.593453888E0,-3.926490843E-1,-1.101332784E0,-1.063025594E0,1.580231191E0
1.598458779E0,-4.309563041E-1,-1.024718285E0,-1.120486379E0,1.578372777E0
1.603494186E0,-3.639186621E-1,-9.289502501E-1,-1.091755986E0,1.478957908E0
1.608529594E0,-4.118026793E-1,-9.959878922E-1,-1.235408068E0,1.639453086E0
1.613534485E0,-3.830722570E-1,-9.864110947E-1,-1.168370485E0,1.576337779E0
1.618569894E0,-4.213795066E-1,-9.768342972E-1,-1.302445769E0,1.681704764E0
1.623605301E0,-4.309563041E-1,-9.576807022E-1,-1.321599364E0,1.688046369E0
1.628640709E0,-4.022258818E-1,-9.672574997E-1,-1.331176162E0,1.693931139E0
1.633645600E0,-4.692635238E-1,-9.481038451E-1,-1.369483352E0,1.730489470E0
1.638681008E0,-4.596867263E-1,-8.523358107E-1,-1.321599364E0,1.638417865E0
1.643716416E0,-4.884171486E-1,-9.385270476E-1,-1.388636947E0,1.745765419E0
1.648751824E0,-4.405331016E-1,-9.289502501E-1,-1.503558636E0,1.821457261E0
1.653787233E0,-3.926490843E-1,-9.193734527E-1,-1.905784607E0,2.152077094E0
1.658792123E0,7.520666504E1,-3.852749252E1,-7.794563293E1,1.149605665E2
1.663827531E0,7.826166534E1,-7.824250793E1,-7.821378326E1,1.355144797E2
1.668862939E0,7.826166534E1,-7.824250793E1,-7.821378326E1,1.355144797E2
1.673898347E0,7.826166534E1,-7.824250793E1,-7.821378326E1,1.355144797E2
1.678903238E0,6.806236267E1,-7.824250793E1,-7.821378326E1,1.298913821E2
1.683938646E0,1.314895535E1,-3.552037811E1,-1.787032127E1,4.188007486E1
1.688974054E0,-8.485051155E0,7.420109558E1,7.819462585E1,1.081304684E2
1.694009462E0,3.639186621E-1,7.837658691E1,7.456501770E1,1.081802370E2
1.699014353E0,6.607996821E-1,5.310339355E1,2.806962013E1,6.006921539E1
1.704049761E0,-9.672574997E-1,1.832043076E1,7.316680431E0,1.975114130E1
1.709085168E0,-3.256114423E-1,2.394201756E-1,-6.895300746E-1,7.992474933E-1
1.714120577E0,2.489969730E-1,-2.806004286E0,-3.830722719E-2,2.817290718E0
1.719125468E0,2.298433632E-1,-2.949656487E0,9.576806426E-2,2.960147443E0
1.724160876E0,2.777273953E-1,-2.968810081E0,1.340752989E-1,2.984785083E0
1.729196283E0,2.873041928E-1,-2.920926094E0,1.532289088E-1,2.939018892E0
1.734231692E0,3.256114423E-1,-2.920926094E0,1.436520964E-1,2.942527482E0
1.739236583E0,2.011129409E-1,-2.920926094E0,1.628057212E-1,2.932364467E0
1.744271991E0,2.585737705E-1,-2.920926094E0,9.576806426E-2,2.933912262E0
1.749307398E0,2.394201756E-1,-2.987963676E0,1.149216816E-1,2.999742646E0
1.754342807E0,2.489969730E-1,-2.987963676E0,6.703764945E-2,2.999069934E0
1.759347698E0,2.298433632E-1,-2.997540474E0,3.830722719E-2,3.006583494E0
1.764383105E0,1.532289088E-1,-2.959233284E0,4.788403213E-2,2.963584588E0
1.769418513E0,1.819593310E-1,-3.083731890E0,6.703764945E-2,3.089822910E0
1.774453922E0,2.106897533E-1,-3.016694069E0,1.915361360E-2,3.024103196E0
1.779458813E0,1.436520964E-1,-3.045424461E0,9.576806799E-3,3.048825641E0
1.784494220E0,1.628057212E-1,-3.055001259E0,-5.746084079E-2,3.059875838E0
1.789529628E0,1.628057212E-1,-3.093308687E0,-9.576806799E-3,3.097604890E0
1.794565037E0,2.011129409E-1,-3.122039080E0,-3.830722719E-2,3.128744456E0
1.799569926E0,1.819593310E-1,-3.131615877E0,-8.619125932E-2,3.138081601E0
1.804605335E0,2.202665508E-1,-3.189076662E0,-1.053448766E-1,3.198409738E0
1.809640743E0,1.628057212E-1,-3.160346270E0,-8.619125932E-2,3.165710533E0
1.814676152E0,1.628057212E-1,-3.179499865E0,-7.661445439E-2,3.184587079E0
1.819711559E0,1.532289088E-1,-3.179499865E0,-8.619125932E-2,3.184356673E0
1.824716450E0,8.619125932E-2,-3.179499865E0,-8.619125932E-2,3.181835517E0
1.829751858E0,1.149216816E-1,-3.150769472E0,-1.244984865E-1,3.155321716E0
1.834787266E0,1.628057212E-1,-3.227383852E0,-5.746084079E-2,3.231998450E0
1.839822674E0,1.436520964E-1,-3.217807055E0,-1.244984865E-1,3.223417137E0
1.844827565E0,6.703764945E-2,-3.227383852E0,-1.244984865E-1,3.230479910E0
1.849862973E0,1.149216816E-1,-3.294421434E0,-1.053448766E-1,3.298108113E0
1.854898381E0,5.746084079E-2,-3.227383852E0,-4.788403213E-2,3.228250479E0
1.859933789E0,3.830722719E-2,-3.246537447E0,-1.053448766E-1,3.248472007E0
1.864938680E0,4.788403213E-2,-3.265691042E0,-1.244984865E-1,3.268414101E0
1.869974088E0,3.830722719E-2,-3.323152065E0,-9.576806426E-2,3.324752414E0
1.875009496E0,9.576806799E-3,-3.323152065E0,-8.619125932E-2,3.324283426E0
1.880044904E0,9.576806799E-3,-3.332728863E0,-6.703764945E-2,3.333416781E0
1.885080312E0,-5.746084079E-2,-3.323152065E0,-8.619125932E-2,3.324766207E0
1.890085202E0,-2.873042040E-2,-3.323152065E0,-1.340752989E-1,3.325979746E0
1.895120611E0,-2.873042040E-2,-3.313575268E0,-2.873042040E-2,3.313824366E0
1.900156019E0,0.000000000E0,-3.342305660E0,-1.436520964E-1,3.345391315E0
1.905191427E0,-2.873042040E-2,-3.332728863E0,-1.532289088E-1,3.336373212E0
1.910196317E0,-1.915361360E-2,-3.380612850E0,-1.149216816E-1,3.382619857E0
1.915231726E0,-1.915361360E-2,-3.294421434E0,-1.436520964E-1,3.297607523E0
1.920267134E0,-9.576806426E-2,-3.371036053E0,-2.106897533E-1,3.378971110E0
1.925302541E0,-7.948749661E-1,-4.596867085E0,-4.462791920E0,6.455968163E0
1.930307432E0,-3.524264812E0,-8.006210327E0,-1.564850235E1,1.792750602E1
1.935342841E0,-9.327810287E0,-1.327345467E1,-2.964979362E1,3.379797191E1
1.940378249E0,-1.285207462E1,-2.088701630E1,-3.191949654E1,4.025291953E1
1.945413656E0,7.852981687E-1,-3.105758476E1,-1.818635559E1,3.599908046E1
1.950418547E0,1.912488365E1,-3.911167908E1,-1.069729328E1,4.483209451E1
1.955453956E0,2.332910156E1,-4.320097733E1,-1.300530338E1,5.079083911E1
1.960489363E0,1.534204483E1,-4.223371887E1,-1.839704514E1,4.855426468E1
1.965524771E0,7.364564419E0,-3.670790100E1,-1.970906830E1,4.231021364E1
1.970529662E0,4.730942726E0,-2.865380669E1,-1.628057098E1,3.329383499E1
1.975565071E0,4.616020679E0,-2.023579216E1,-1.231577396E1,2.413448196E1
1.980600478E0,3.878606796E0,-1.354160500E1,-8.140285492E0,1.626907817E1
1.985635886E0,2.585737944E0,-8.686163902E0,-5.123591423E0,1.041089204E1
1.990640777E0,1.455674648E0,-5.391742229E0,-3.064578056E0,6.370361969E0
1.995676186E0,7.948749661E-1,-3.428496838E0,-1.551442742E0,3.846217799E0
2.000711593E0,4.213795066E-1,-2.135627985E0,-6.991068721E-1,2.286311002E0
2.005747001E0,3.734954596E-1,-1.541865945E0,-3.639186621E-1,1.627662816E0
2.010751892E0,2.777273953E-1,-1.292868972E0,-1.723825186E-1,1.333551055E0
2.015787300E0,2.489969730E-1,-1.206677675E0,-1.628057212E-1,1.242809803E0
2.020822708E0,3.064578176E-1,-1.264138460E0,-9.576806426E-2,1.304275263E0
2.025858116E0,2.873041928E-1,-1.292868972E0,-1.149216816E-1,1.329383643E0
2.030863007E0,3.543418646E-1,-1.254561663E0,-2.106897533E-1,1.320557948E0
2.035898414E0,3.351882398E-1,-1.177947283E0,-2.968810201E-1,1.260178280E0
2.040933823E0,3.351882398E-1,-1.158793569E0,-2.873041928E-1,1.240039270E0
2.045969231E0,3.160346150E-1,-1.139639974E0,-3.639186621E-1,1.237373808E0
2.050974121E0,3.256114423E-1,-1.187524080E0,-5.458779931E-1,1.346929484E0
2.056009529E0,3.447650373E-1,-1.235408068E0,-6.416460276E-1,1.434156773E0
2.061044938E0,3.734954596E-1,-1.225831270E0,-8.619126081E-1,1.544362168E0
2.066080346E0,3.256114423E-1,-1.235408068E0,-1.149216771E0,1.718416449E0
2.071085236E0,2.106897533E-1,-1.197100878E0,-3.629609823E0,3.827728850E0
2.076120644E0,1.723825186E-1,-1.340752959E0,-1.069729328E1,1.078236606E1
2.081156053E0,6.703764945E-2,-1.685518026E0,-2.060928917E1,2.067820749E1
2.086191460E0,-3.639186621E-1,-2.317587137E0,-3.073197365E1,3.082138626E1
2.091196351E0,-1.532289028E0,-3.600879431E0,-3.604710007E1,3.625889774E1
2.096231759E0,-3.380612850E0,-5.487510204E0,-3.209188080E1,3.273270726E1
2.101267168E0,-3.869029999E0,-8.082824707E0,-2.188300323E1,2.364671814E1
2.106302575E0,-2.844311714E0,-9.787496567E0,-1.351287460E1,1.692580805E1
2.111307466E0,-1.742978811E0,-1.093671322E1,-8.532935143E0,1.398072435E1
2.116342874E0,-1.541865945E0,-1.136767006E1,-6.416460514E0,1.314428540E1
2.121378282E0,-7.565677166E-1,-1.077390766E1,-4.673481941E0,1.176821628E1
2.126413690E0,1.216254473E0,3.016694069E0,1.273715305E1,1.314590377E1
2.131418581E0,4.865017891E0,2.911349297E1,2.315671921E1,3.751662986E1
2.136453989E0,1.053448796E0,3.337517166E1,6.952761650E0,3.410795702E1
2.141489397E0,-2.547430515E0,1.871308136E1,-2.220861435E1,2.915289638E1
2.146524805E0,-1.312022567E0,5.477933407E0,-3.827849579E1,3.869072754E1
2.151529696E0,7.661445439E-2,-3.562572241E0,-3.303040695E1,3.322206457E1
2.156565104E0,-4.692635238E-1,-4.644751072E0,-1.999637222E1,2.053408929E1
2.161600512E0,-4.405331016E-1,-3.064578056E0,-1.086967564E1,1.130201560E1
2.166635920E0,0.000000000E0,-1.944091797E0,-5.813121796E0,6.129590355E0
2.171640811E0,2.202665508E-1,-1.398213744E0,-3.792415380E0,4.047954230E0
2.176676218E0,2.873041928E-1,-1.149216771E0,-3.361459255E0,3.564077891E0
2.181711627E0,3.830722570E-1,-1.235408068E0,-4.050989151E0,4.252468759E0
2.186747035E0,6.129156351E-1,-1.350329757E0,-5.774814606E0,5.962175757E0
2.191751926E0,6.895300746E-1,-1.484405041E0,-7.958326340E0,8.124891887E0
2.196787333E0,6.320692301E-1,-1.714248419E0,-1.002691650E1,1.019201716E1
2.201822742E0,5.554547906E-1,-1.905784607E0,-1.151132202E1,1.168122766E1
2.206858150E0,4.884171486E-1,-1.982398987E0,-1.204762268E1,1.221939726E1
2.211863040E0,9.576807022E-1,-2.145204782E0,-1.132936287E1,1.157037246E1
2.216898448E0,8.906430602E-1,-2.020706177E0,-1.013226128E1,1.037011172E1
2.221933857E0,3.256114423E-1,-2.231395960E0,-7.757213593E0,8.078336058E0
2.226969265E0,1.398213744E0,-2.987963676E0,-5.956773758E0,6.809264440E0
2.231974155E0,1.656787634E0,-2.624045134E0,-7.307103634E0,7.938785905E0
2.237009563E0,1.091755986E0,-2.154781580E0,-9.040505409E0,9.357657444E0
2.242044972E0,-8.619125932E-2,-1.685518026E0,-1.117613316E1,1.130284709E1
2.247080379E0,-1.321599364E0,-1.302445769E0,-1.430774975E1,1.442756711E1
2.252085270E0,-2.537853718E0,-1.005564690E0,-1.732444382E1,1.753819305E1
2.257120678E0,-4.319139957E0,6.991068721E-1,-1.261265469E1,1.335001044E1
2.262156087E0,-3.074155092E0,3.840299606E0,-6.895300746E-1,4.967271114E0
2.267191494E0,1.302445769E0,5.592854977E0,3.083731890E0,6.518112774E0
2.272196385E0,3.428496838E0,4.501099110E0,-5.918466568E0,8.187962523E0
2.277231793E0,3.141192675E0,1.235408068E0,-1.566765594E1,1.602712598E1
2.282267202E0,2.126051188E0,-1.733402014E0,-1.898123169E1,1.917842362E1
2.287302609E0,-4.213795066E-1,-2.987963676E0,-1.804270363E1,1.829329500E1
2.292307500E0,-2.585737944E0,-2.767697096E0,-1.507389355E1,1.554247260E1
2.297342908E0,-2.796427488E0,-1.972822189E0,-1.106121159E1,1.157853341E1
2.302378316E0,-2.365471363E0,-1.331176162E0,-6.818686485E0,7.339071476E0
2.307383206E0,-2.901772499E0,-7.469909191E-1,-2.652775526E0,4.001936664E0
2.312418615E0,-3.763684988E0,-5.075707436E-1,-7.757213712E-1,3.876170326E0
2.317454023E0,-4.836287498E0,-7.374141216E-1,-1.398213744E0,5.088070167E0
2.322489431E0,-5.726930618E0,-8.523358107E-1,-5.085284233E0,7.706122655E0
2.327494321E0,-6.052541733E0,-2.106897533E-1,-1.017056847E1,1.183714976E1
2.332529730E0,-5.506663799E0,1.043871999E0,-1.542823601E1,1.641473366E1
2.337565137E0,-3.849876404E0,1.608903527E0,-1.891419411E1,1.936896635E1
2.342600546E0,-3.189076662E0,1.752555609E0,-1.923022842E1,1.957149321E1
2.347605436E0,-4.165910721E0,1.819593310E0,-1.627099419E1,1.689411092E1
2.352640845E0,-5.219359875E0,1.905784607E0,-1.299572659E1,1.413374126E1
2.357676252E0,-5.717353821E0,2.231395960E0,-1.089840603E1,1.250769829E1
2.362681143E0,-9.959878922E-1,4.395754337E0,-9.682151794E0,1.067982731E1
2.367716551E0,4.223371983E0,5.928043365E0,-1.004607010E1,1.240572825E1
2.372751959E0,8.121131897E0,6.435614109E0,-1.181777954E1,1.571718249E1
2.377787367E0,1.025675964E1,6.167463779E0,-1.395340729E1,1.838304389E1
2.382792258E0,9.816226959E0,5.774814606E0,-1.616564941E1,1.977460534E1
2.387827666E0,7.881711960E0,5.851428986E0,-1.854069710E1,2.097899076E1
2.392863074E0,5.774814606E0,6.167463779E0,-1.970906830E1,2.144372790E1
2.397898482E0,4.146757126E0,6.473921299E0,-1.918234444E1,2.066566209E1
2.402903373E0,3.351882458E0,6.263231754E0,-1.799481964E1,1.934623276E1
2.407938780E0,3.591302633E0,5.497087002E0,-1.666364288E1,1.791067878E1
2.412974189E0,4.491522312E0,4.750096321E0,-1.539950562E1,1.672967307E1
2.418009597E0,4.903325081E0,4.041412354E0,-1.422155857E1,1.557653167E1
2.423014488E0,4.596867085E0,3.371036053E0,-1.218169785E1,1.344949194E1
2.428049895E0,3.083731890E0,2.710236311E0,-9.193734169E0,1.006874030E1
2.433085304E0,1.244984865E0,2.126051188E0,-6.224924564E0,6.694756665E0
2.438120712E0,-7.565677166E-1,1.857900500E0,-4.481945515E0,4.910399635E0
2.443125602E0,-2.758120298E0,1.838746905E0,-4.357447147E0,5.474994375E0
2.448161010E0,-4.242525578E0,1.924938202E0,-5.602431774E0,7.286401865E0
2.453196419E0,-5.018246651E0,2.212242365E0,-7.939172745E0,9.649211346E0
2.458201310E0,-5.544970989E0,2.595314741E0,-1.067813969E1,1.230873791E1
2.463236717E0,-5.975927353E0,3.265691042E0,-1.366610336E1,1.526888427E1
2.468272125E0,-6.205770969E0,3.936067581E0,-1.629972458E1,1.787974392E1
2.473307534E0,-6.110002518E0,4.501099110E0,-1.895250130E1,2.041541891E1
2.478312425E0,-5.928043365E0,4.587290287E0,-2.132754898E1,2.260639900E1
2.483347832E0,-5.535394192E0,4.462791920E0,-2.319502640E1,2.426038644E1
2.488383240E0,-4.730942726E0,4.108449936E0,-2.439212608E1,2.518406232E1
2.493418649E0,-3.342305660E0,3.610456228E0,-2.514869499E1,2.562544168E1
2.498423539E0,-1.589749932E0,2.892195702E0,-2.501461983E1,2.523139524E1
2.503458947E0,4.979939461E-1,1.934514999E0,-2.453577995E1,2.461696253E1
2.508494355E0,1.695094824E0,1.340752959E0,-2.374090385E1,2.383907466E1
2.513529764E0,2.547430515E0,1.302445769E0,-2.271618652E1,2.289565237E1
2.518534654E0,2.652775526E0,1.608903527E0,-2.190215683E1,2.212081062E1
2.523570062E0,2.011129379E0,1.819593310E0,-2.112643623E1,2.129980913E1
2.528605470E0,8.236053586E-1,2.394201756E0,-2.020706177E1,2.036506502E1
2.533610360E0,-3.064578176E-1,3.284844637E0,-1.923022842E1,1.951117131E1
2.538645769E0,-1.254561663E0,4.347870350E0,-1.816720200E1,1.872231636E1
2.543681177E0,-2.700659513E0,5.295974255E0,-1.751597977E1,1.849730933E1
2.548716585E0,-4.108449936E0,6.224924564E0,-1.735317421E1,1.888813654E1
2.553721475E0,-5.190629482E0,6.971915245E0,-1.763090134E1,1.965703229E1
2.558756884E0,-5.966350555E0,7.517793179E0,-1.832043076E1,2.068218403E1
2.563792292E0,-6.311115742E0,7.948749542E0,-1.915361404E1,2.167657104E1
2.568827699E0,-6.253654957E0,8.169015884E0,-1.990060425E1,2.240256839E1
2.573832590E0,-5.870582581E0,8.370129585E0,-2.070505714E1,2.309160454E1
2.578867998E0,-5.430049419E0,8.293514252E0,-2.163400650E1,2.379701772E1
2.583903407E0,-5.267243862E0,8.264783859E0,-2.235226631E1,2.440644012E1
2.588908297E0,-5.190629482E0,8.245630264E0,-2.281195450E1,2.480561067E1
2.593943705E0,-5.046977043E0,8.034940720E0,-2.313756561E1,2.500758269E1
2.598979113E0,-4.893748283E0,7.795520782E0,-2.326206398E1,2.501684507E1
2.603984003E0,-4.491522312E0,7.565677166E0,-2.330994797E1,2.491519452E1
2.609019412E0,-4.022258759E0,7.144298077E0,-2.337698555E1,2.477302997E1
2.614054820E0,-3.610456228E0,6.789956093E0,-2.334825516E1,2.458210562E1
2.619090228E0,-3.313575268E0,6.655880928E0,-2.324291039E1,2.440314355E1
2.624095118E0,-3.275267839E0,6.560112476E0,-2.313756561E1,2.427157592E1
2.629130527E0,-3.246537447E0,6.742072105E0,-2.310883522E1,2.429019981E1
2.634165935E0,-3.236960649E0,7.010222435E0,-2.330037117E1,2.454645452E1
2.639201343E0,-3.332728863E0,7.220912457E0,-2.330994797E1,2.462929826E1
2.644206233E0,-3.505111217E0,7.422025204E0,-2.324291039E1,2.464964799E1
2.649241642E0,-3.888183594E0,7.326257229E0,-2.322375679E1,2.466039124E1
2.654277050E0,-4.280832767E0,7.144298077E0,-2.280237770E1,2.427581004E1
2.659281940E0,-4.472368717E0,6.799532890E0,-2.231395912E1,2.375181048E1
2.664317348E0,-4.807557106E0,6.253654957E0,-2.159569931E1,2.299119471E1
2.669352757E0,-5.200206280E0,5.688623428E0,-2.075294113E1,2.213791199E1
2.674388165E0,-5.286397457E0,5.046977043E0,-1.950795555E1,2.083214596E1
2.679393055E0,-5.190629482E0,4.568136692E0,-1.820550919E1,1.947436962E1
2.684428463E0,-4.826710701E0,4.175487995E0,-1.697010231E1,1.813053250E1
2.689463872E0,-4.711789131E0,3.878606796E0,-1.577300072E1,1.691248353E1
2.694468761E0,-4.817133904E0,3.734954596E0,-1.501643276E1,1.620641594E1
2.699504170E0,-4.999093056E0,3.677493811E0,-1.445140171E1,1.572761595E1
2.704539578E0,-5.114014626E0,3.725377798E0,-1.401086807E1,1.537322378E1
2.709574987E0,-4.989516258E0,3.620033026E0,-1.378102493E1,1.509690564E1
2.714579876E0,-4.740519524E0,3.620033026E0,-1.318726254E1,1.447346046E1
2.719615285E0,-4.529829502E0,3.380612850E0,-1.354160500E1,1.467388716E1
2.724650693E0,-4.060565948E0,3.074155092E0,-1.294784260E1,1.391349177E1
2.729686101E0,-3.342305660E0,2.767697096E0,-1.219127464E1,1.294056922E1
2.734690991E0,-3.007117271E0,2.585737944E0,-1.151132202E1,1.217535748E1
2.739726400E0,-2.748543501E0,2.250549555E0,-1.066856289E1,1.124445191E1
2.744761808E0,-2.375048161E0,1.886630893E0,-9.911994934E0,1.036570661E1
2.749766698E0,-1.924938202E0,1.618480325E0,-9.097966194E0,9.439165986E0
2.754802106E0,-1.580173135E0,1.541865945E0,-8.341399193E0,8.628628989E0
2.759837515E0,-1.312022567E0,1.570596337E0,-7.785943985E0,8.050409916E0
2.764872922E0,-1.149216771E0,1.666364431E0,-7.450755596E0,7.720830821E0
2.769877813E0,-1.034295082E0,1.656787634E0,-6.981492043E0,7.249547760E0
2.774913221E0,-8.619126081E-1,1.771709204E0,-6.617573261E0,6.904645010E0
2.779948630E0,-6.320692301E-1,1.877054095E0,-6.224924564E0,6.532421406E0
2.784984037E0,-3.256114423E-1,2.039859772E0,-6.023811340E0,6.368151519E0
2.789988928E0,6.703764945E-2,2.039859772E0,-5.975927353E0,6.314842014E0
2.795024336E0,3.830722570E-1,2.030282974E0,-5.870582581E0,6.223546669E0
2.800059745E0,6.991068721E-1,1.963245392E0,-5.612008572E0,5.986461651E0
2.805095152E0,8.714894056E-1,1.857900500E0,-5.650316238E0,6.011435906E0
2.810100043E0,9.959878922E-1,1.771709204E0,-5.755661011E0,6.103980591E0
2.815135451E0,9.289502501E-1,1.656787634E0,-5.918466568E0,6.215797644E0
2.820170859E0,6.512228847E-1,1.522712231E0,-6.177040577E0,6.395199299E0
2.825175750E0,2.777273953E-1,1.379060149E0,-6.483498096E0,6.634356560E0
2.830211158E0,-1.723825186E-1,1.388636947E0,-6.521805286E0,6.670230318E0
2.835246566E0,-6.224924326E-1,1.561019540E0,-6.464344501E0,6.679223657E0
2.840281974E0,-8.810662031E-1,1.647210717E0,-6.263231754E0,6.535874296E0
2.845286865E0,-9.193734527E-1,1.685518026E0,-5.736507416E0,6.049275650E0
2.850322273E0,-7.278373241E-1,1.465251446E0,-5.430049419E0,5.671167928E0
2.855357680E0,-2.777273953E-1,1.244984865E0,-5.056553841E0,5.214964675E0
2.860362571E0,1.532289088E-1,1.197100878E0,-4.788403511E0,4.938151253E0
2.865397980E0,4.884171486E-1,1.273715258E0,-4.769249916E0,4.960508707E0
2.870433388E0,6.512228847E-1,1.503558636E0,-4.673481941E0,4.952394701E0
2.875468795E0,5.650315881E-1,1.771709204E0,-4.568136692E0,4.932148318E0
2.880473686E0,3.543418646E-1,1.972822189E0,-4.510675907E0,4.935968262E0
2.885509094E0,7.661445439E-2,2.126051188E0,-4.367023945E0,4.857660091E0
2.890544502E0,-3.639186621E-1,2.231395960E0,-4.338293552E0,4.892070693E0
2.895579910E0,-7.948749661E-1,2.327163935E0,-4.070142746E0,4.755373820E0
2.900584801E0,-1.225831270E0,2.422932148E0,-3.869029999E0,4.726801839E0
2.905620209E0,-1.656787634E0,2.518700123E0,-3.639186621E0,4.725724794E0
2.910655617E0,-1.924938202E0,2.422932148E0,-3.323152065E0,4.540850903E0
2.915691025E0,-2.183511972E0,2.489969730E0,-3.074155092E0,4.518639543E0
2.920695916E0,-2.308010340E0,2.499546528E0,-2.901772499E0,4.471568876E0
2.925731323E0,-2.365471363E0,2.528276920E0,-2.710236311E0,4.396933001E0
2.930766732E0,-2.269703150E0,2.537853718E0,-2.710236311E0,4.351739278E0
2.935802140E0,-2.250549555E0,2.432508945E0,-2.662352324E0,4.250904958E0
2.940807031E0,-2.145204782E0,2.518700123E0,-2.710236311E0,4.276813619E0
2.945842438E0,-2.135627985E0,2.509123325E0,-2.825158119E0,4.340290906E0
2.950877847E0,-2.020706177E0,2.633621931E0,-2.911349297E0,4.415333810E0
2.955913255E0,-2.260126352E0,2.671929121E0,-2.959233284E0,4.583059893E0
2.960918145E0,-2.461239338E0,2.758120298E0,-2.882618904E0,4.687687959E0
2.965953553E0,-2.671929121E0,2.700659513E0,-2.671929121E0,4.644563732E0
2.970988962E0,-2.834734917E0,2.595314741E0,-2.537853718E0,4.605657624E0
2.975993853E0,-2.978386879E0,2.557007313E0,-2.528276920E0,4.669181832E0
2.981029260E0,-3.016694069E0,2.403778553E0,-2.509123325E0,4.601553466E0
2.986064668E0,-2.806004286E0,2.336740971E0,-2.547430515E0,4.452350014E0
2.991100077E0,-2.604891539E0,2.049436569E0,-2.528276920E0,4.168672974E0
2.996104968E0,-2.183511972E0,1.771709204E0,-2.528276920E0,3.781383639E0
3.001140375E0,-1.742978811E0,1.321599364E0,-2.461239338E0,3.292764658E0
3.006175783E0,-1.149216771E0,9.672574997E-1,-2.422932148E0,2.850769449E0
3.011211192E0,-5.554547906E-1,5.458779931E-1,-2.317587137E0,2.444938230E0
3.016216082E0,1.915361285E-1,2.202665508E-1,-2.106897593E0,2.127021605E0
3.021251490E0,8.236053586E-1,-2.681505978E-1,-2.001552582E0,2.180927158E0
3.026286898E0,1.321599364E0,-6.416460276E-1,-1.982398987E0,2.467435966E0
3.031322307E0,1.618480325E0,-9.002198577E-1,-2.202665567E0,2.877778650E0
3.036327197E0,1.810016513E0,-1.130063176E0,-2.547430515E0,3.323041497E0
3.041362605E0,1.972822189E0,-1.139639974E0,-2.652775526E0,3.496859255E0
3.046398013E0,2.154781580E0,-1.139639974E0,-2.729389906E0,3.659430582E0
3.051402903E0,2.240972757E0,-1.264138460E0,-2.796427488E0,3.800001532E0
3.056438312E0,2.327163935E0,-1.321599364E0,-2.940079689E0,3.975724517E0
3.061473720E0,2.528276920E0,-1.493981838E0,-3.026270866E0,4.216927943E0
3.066509128E0,2.691082716E0,-1.608903527E0,-3.418920040E0,4.638912694E0
3.071514018E0,2.892195702E0,-1.733402014E0,-3.725377798E0,5.024730665E0
3.076549427E0,3.179499865E0,-1.857900500E0,-3.869029999E0,5.341386224E0
3.081584835E0,3.524264812E0,-1.972822189E0,-4.031835556E0,5.706852706E0
3.086620242E0,3.792415380E0,-2.212242365E0,-4.108449936E0,6.012968616E0
3.091625133E0,4.050989151E0,-2.221819162E0,-4.290409565E0,6.305125512E0
3.096660542E0,4.098873138E0,-2.288856745E0,-4.185064793E0,6.289228373E0
3.101695950E0,4.309563160E0,-2.394201756E0,-4.223371983E0,6.491641362E0
3.106731357E0,4.108449936E0,-2.346317768E0,-4.357447147E0,6.432100247E0
3.111736248E0,3.600879431E0,-2.001552582E0,-4.683058739E0,6.237273809E0
3.116771657E0,3.007117271E0,-1.589749932E0,-4.855441093E0,5.928352836E0
3.121807064E0,2.518700123E0,-1.283292055E0,-4.855441093E0,5.618362486E0
3.126842472E0,1.972822189E0,-1.091755986E0,-4.893748283E0,5.388202927E0
3.131847363E0,1.398213744E0,-1.015141487E0,-4.845864296E0,5.144697726E0
3.136882772E0,1.053448796E0,-1.053448796E0,-4.807557106E0,5.033101833E0
3.141918179E0,1.034295082E0,-1.101332784E0,-4.692635536E0,4.929860900E0
3.146953587E0,1.024718285E0,-1.015141487E0,-4.596867085E0,4.817857075E0
3.151958478E0,1.120486379E0,-1.024718285E0,-4.405331135E0,4.659665191E0
3.156993886E0,1.177947283E0,-8.714894056E-1,-4.395754337E0,4.633541818E0
3.162029294E0,1.197100878E0,-7.565677166E-1,-4.443638325E0,4.663836059E0
3.167064702E0,1.388636947E0,-7.565677166E-1,-4.242525578E0,4.527662814E0
3.172069593E0,1.455674648E0,-7.852981687E-1,-4.089296341E0,4.411125305E0
3.177105000E0,1.647210717E0,-1.015141487E0,-3.878606796E0,4.334444147E0
3.182140409E0,1.503558636E0,-1.264138460E0,-3.773261786E0,4.253967456E0
3.187175817E0,1.426944256E0,-1.340752959E0,-3.907337189E0,4.370477355E0
3.192211226E0,1.225831270E0,-1.474828243E0,-4.022258759E0,4.456046024E0
3.197216115E0,1.043871999E0,-1.446097851E0,-4.118026733E0,4.487651047E0
3.202251524E0,9.768342972E-1,-1.398213744E0,-4.156333923E0,4.492696139E0
3.207286932E0,8.523358107E-1,-1.283292055E0,-4.041412354E0,4.325081345E0
3.212322340E0,7.182605267E-1,-1.216254473E0,-3.888183594E0,4.136803692E0
3.217327230E0,6.416460276E-1,-9.768342972E-1,-3.725377798E0,3.904401953E0
3.222362639E0,5.746083856E-1,-9.481038451E-1,-3.648763418E0,3.813469572E0
3.227398047E0,6.320692301E-1,-8.523358107E-1,-3.639186621E0,3.790734376E0
3.232433455E0,6.129156351E-1,-7.948749661E-1,-3.773261786E0,3.904484126E0
3.237438345E0,5.937620401E-1,-7.757213712E-1,-3.830722809E0,3.953319396E0
3.242473754E0,9.193734527E-1,-6.991068721E-1,-3.907337189E0,4.074467066E0
3.247509161E0,1.254561663E0,-7.565677166E-1,-4.079719543E0,4.334793101E0
3.252544570E0,1.628057122E0,-8.714894056E-1,-4.213795185E0,4.600666652E0
3.257549460E0,2.068590164E0,-1.034295082E0,-4.405331135E0,4.975517460E0
3.262584869E0,2.308010340E0,-1.177947283E0,-4.520252705E0,5.210293278E0
3.267620276E0,2.614468336E0,-1.446097851E0,-4.654327869E0,5.530769530E0
3.272655685E0,2.777273893E0,-1.628057122E0,-4.683058739E0,5.682856625E0
3.277660575E0,2.796427488E0,-1.618480325E0,-4.625597477E0,5.642307797E0
3.282695984E0,2.729389906E0,-1.781286120E0,-4.625597477E0,5.658507005E0
3.287731391E0,2.518700123E0,-1.877054095E0,-4.443638325E0,5.441792347E0
3.292766800E0,2.317587137E0,-1.896207690E0,-4.252102375E0,5.200691142E0
3.297802208E0,2.049436569E0,-1.800439715E0,-4.012681961E0,4.852153124E0
3.302807098E0,1.838746905E0,-1.551442742E0,-3.811569214E0,4.507330101E0
3.307842506E0,1.723825216E0,-1.235408068E0,-3.514688015E0,4.104977261E0
3.312877915E0,1.647210717E0,-1.149216771E0,-3.361459255E0,3.915789915E0
3.317913323E0,1.857900500E0,-1.149216771E0,-3.351882458E0,4.000951070E0
3.322918213E0,2.068590164E0,-1.158793569E0,-3.485957623E0,4.215894727E0
3.327953621E0,2.432508945E0,-1.244984865E0,-3.620033026E0,4.535606486E0
3.332989030E0,2.681505919E0,-1.426944256E0,-3.744531393E0,4.821634500E0
3.338024437E0,2.911349297E0,-1.608903527E0,-3.792415380E0,5.044495981E0
3.343029328E0,3.007117271E0,-1.905784607E0,-3.782838583E0,5.194673907E0
3.348064736E0,3.083731890E0,-2.346317768E0,-3.754108191E0,5.395177267E0
3.353100145E0,3.160346270E0,-2.557007313E0,-3.715801001E0,5.507563165E0
3.358135552E0,3.227383852E0,-2.844311714E0,-3.725377798E0,5.690742956E0
3.363140443E0,3.303998232E0,-3.055001259E0,-3.514688015E0,5.709857166E0
3.368175851E0,3.457227230E0,-3.198653460E0,-3.399766445E0,5.808805037E0
3.373211259E0,3.505111217E0,-3.256114244E0,-3.246537447E0,5.781703038E0
3.378246667E0,3.505111217E0,-3.275267839E0,-3.169923067E0,5.749921418E0
3.383251558E0,3.533841610E0,-3.275267839E0,-2.997540474E0,5.674562964E0
3.388286966E0,3.648763418E0,-3.246537447E0,-2.806004286E0,5.632684966E0
3.393322373E0,3.715801001E0,-3.179499865E0,-2.442085743E0,5.466276543E0
3.398357782E0,3.725377798E0,-3.074155092E0,-2.145204782E0,5.284957221E0
3.403362673E0,3.744531393E0,-2.863465309E0,-1.905784607E0,5.084580995E0
3.408398081E0,3.620033026E0,-2.786850691E0,-1.704671621E0,4.876174855E0
3.413433488E0,3.514688015E0,-2.585737944E0,-1.675941229E0,4.674168542E0
3.418468897E0,3.313575268E0,-2.355894566E0,-1.484405041E0,4.328218870E0
3.423473788E0,3.284844637E0,-2.059013367E0,-1.436521053E0,4.134408430E0
3.428509195E0,3.217807055E0,-1.848323703E0,-1.532289028E0,4.014784230E0
3.433544603E0,3.026270866E0,-1.628057122E0,-1.608903527E0,3.794397964E0
3.438580012E0,2.911349297E0,-1.484405041E0,-1.704671621E0,3.685826690E0
3.443615420E0,2.624045134E0,-1.264138460E0,-1.829170108E0,3.439407244E0
3.448620310E0,2.442085743E0,-1.072602391E0,-1.982398987E0,3.323276156E0
3.453655718E0,2.173935175E0,-8.140285611E-1,-2.288856745E0,3.259984945E0
3.458691127E0,2.011129379E0,-6.703764796E-1,-2.422932148E0,3.219417059E0
3.463726534E0,1.857900500E0,-4.405331016E-1,-2.422932148E0,3.084876639E0
3.468731425E0,1.647210717E0,-4.213795066E-1,-2.518700123E0,3.038867247E0
3.473766833E0,1.474828243E0,-3.447650373E-1,-2.566584110E0,2.980156921E0
3.478802242E0,1.608903527E0,-3.256114423E-1,-2.518700123E0,3.006400452E0
3.483837649E0,1.810016513E0,-4.884171486E-1,-2.432508945E0,3.071125341E0
3.488842540E0,2.020706177E0,-3.734954596E-1,-2.154781580E0,2.977555368E0
3.493877948E0,2.260126352E0,-4.309563041E-1,-1.924938202E0,2.999880255E0
3.498913356E0,2.480392933E0,-4.884171486E-1,-1.723825216E0,3.059815973E0
3.503948764E0,2.652775526E0,-7.182605267E-1,-1.570596337E0,3.165420830E0
3.508953655E0,2.786850691E0,-9.385270476E-1,-1.656787634E0,3.375250369E0
3.513989063E0,2.863465309E0,-1.139639974E0,-1.723825216E0,3.531258447E0
3.519024471E0,2.834734917E0,-1.436521053E0,-1.733402014E0,3.619944382E0
3.524059879E0,2.738966703E0,-1.608903527E0,-1.340752959E0,3.447916423E0
3.529064770E0,2.422932148E0,-1.896207690E0,-1.225831270E0,3.311927853E0
3.534100178E0,2.116474390E0,-1.915361404E0,-9.959878922E-1,3.023254047E0
3.539135586E0,2.135627985E0,-2.001552582E0,-7.374141216E-1,3.018426612E0
3.544170994E0,2.164358377E0,-2.059013367E0,-5.075707436E-1,3.030117372E0
3.549175885E0,2.221819162E0,-2.001552582E0,-4.405331016E-1,3.022707816E0
3.554211292E0,2.154781580E0,-1.829170108E0,-5.267243981E-1,2.875132263E0
3.559246701E0,1.944091797E0,-1.522712231E0,-6.129156351E-1,2.544368493E0
3.564282109E0,1.857900500E0,-1.225831270E0,-6.129156351E-1,2.308705730E0
3.569287000E0,1.810016513E0,-1.177947283E0,-5.746083856E-1,2.234702301E0
3.574322407E0,2.078166962E0,-1.465251446E0,-3.639186621E-1,2.568691595E0
3.579357816E0,1.972822189E0,-1.312022567E0,-6.607996821E-1,2.459692425E0
3.584393224E0,1.465251446E0,-1.331176162E0,-3.543418646E-1,2.011106643E0
3.589428632E0,-5.746084079E-2,-1.340752989E-1,-4.022258818E-1,4.278593157E-1
3.594433522E0,-9.576806799E-3,-1.149216816E-1,-3.160346150E-1,3.364172796E-1
3.599468931E0,9.576806799E-3,-1.915361285E-1,-3.351882398E-1,3.861721894E-1
3.604504339E0,-1.915361360E-2,-9.576806426E-2,-2.968810201E-1,3.125327553E-1
3.609539747E0,-1.915361360E-2,-1.436520964E-1,-3.160346150E-1,3.476789663E-1
3.614544637E0,0.000000000E0,-7.661445439E-2,-3.256114423E-1,3.345034918E-1
3.619580046E0,-9.576806799E-3,-1.149216816E-1,-3.351882398E-1,3.544712460E-1
3.624615453E0,2.873042040E-2,-7.661445439E-2,-3.256114423E-1,3.357350489E-1
3.629650861E0,3.830722719E-2,-9.576806426E-2,-3.926490843E-1,4.059707738E-1
3.634655752E0,9.576806799E-3,-1.053448766E-1,-3.734954596E-1,3.881856728E-1
3.639691161E0,-1.915361360E-2,-8.619125932E-2,-3.830722570E-1,3.931159475E-1
3.644726568E0,0.000000000E0,-1.244984865E-1,-4.022258818E-1,4.210528864E-1
3.649761976E0,-9.576806799E-3,-7.661445439E-2,-4.405331016E-1,4.472481452E-1
3.654766867E0,9.576806799E-3,-9.576806426E-2,-4.309563041E-1,4.415728404E-1
3.659802276E0,1.915361360E-2,-9.576806426E-2,-4.501099288E-1,4.605836852E-1
3.664837683E0,4.788403213E-2,-1.149216816E-1,-4.692635238E-1,4.854978148E-1
3.669873091E0,0.000000000E0,-1.053448766E-1,-4.596867263E-1,4.716030422E-1
3.674877982E0,-2.873042040E-2,-1.628057212E-1,-5.363011956E-1,5.612041628E-1
3.679913390E0,-3.830722719E-2,-1.628057212E-1,-4.884171486E-1,5.162600677E-1
3.684948798E0,0.000000000E0,-1.340752989E-1,-5.363011956E-1,5.528066192E-1
3.689984206E0,-9.576806799E-3,-1.244984865E-1,-5.746083856E-1,5.880190347E-1
3.695019615E0,9.576806799E-3,-1.244984865E-1,-5.841852427E-1,5.973809389E-1
3.700024505E0,0.000000000E0,-1.053448766E-1,-5.841852427E-1,5.936075646E-1
3.705059913E0,-1.915361360E-2,-1.053448766E-1,-6.033388376E-1,6.127659887E-1
3.710095321E0,-2.873042040E-2,-1.723825186E-1,-6.607996821E-1,6.835183902E-1
3.715130729E0,0.000000000E0,-1.244984865E-1,-6.895300746E-1,7.006793824E-1
3.720135620E0,9.576806799E-3,-1.053448766E-1,-6.607996821E-1,6.692125807E-1
3.725171028E0,1.915361360E-2,-5.746084079E-2,-6.224924326E-1,6.254322008E-1
3.730206436E0,-9.576806799E-3,-8.619125932E-2,-6.703764796E-1,6.759624789E-1
3.735241844E0,1.915361360E-2,-1.532289088E-1,-5.746083856E-1,5.949964337E-1
3.740246735E0,3.830722719E-2,-1.628057212E-1,-6.703764796E-1,6.909253005E-1
3.745282143E0,-1.915361360E-2,-1.149216816E-1,-6.129156351E-1,6.238905590E-1
3.750317550E0,4.788403213E-2,-1.149216816E-1,-6.320692301E-1,6.442137728E-1
3.755352959E0,7.661445439E-2,-6.703764945E-2,-6.703764796E-1,6.780622726E-1
3.760357850E0,4.788403213E-2,-1.340752989E-1,-5.937620401E-1,6.105918658E-1
3.765393258E0,3.830722719E-2,-1.149216816E-1,-6.224924326E-1,6.341697448E-1
3.770428665E0,-1.915361360E-2,-1.628057212E-1,-6.607996821E-1,6.808294821E-1
3.775464074E0,0.000000000E0,-8.619125932E-2,-6.320692301E-1,6.379188387E-1
3.780468965E0,-1.915361360E-2,-1.053448766E-1,-6.607996821E-1,6.694181233E-1
3.785504373E0,3.830722719E-2,-1.244984865E-1,-6.224924326E-1,6.359749566E-1
3.790539780E0,6.703764945E-2,-1.628057212E-1,-6.895300746E-1,7.116540403E-1
3.795575189E0,3.830722719E-2,-1.628057212E-1,-6.512228847E-1,6.723573395E-1
3.800610597E0,2.873042040E-2,-1.628057212E-1,-6.703764796E-1,6.904605451E-1
3.805615487E0,1.915361360E-2,-1.436520964E-1,-7.374141216E-1,7.515200413E-1
3.810650895E0,5.746084079E-2,-1.628057212E-1,-7.469909191E-1,7.666830403E-1
3.815686304E0,3.830722719E-2,-1.149216816E-1,-7.948749661E-1,8.040526403E-1
3.820691195E0,4.788403213E-2,-1.819593310E-1,-7.086837292E-1,7.332357784E-1
3.825726602E0,6.703764945E-2,-8.619125932E-2,-8.044517636E-1,8.118285654E-1
3.830762010E0,0.000000000E0,-1.532289088E-1,-8.044517636E-1,8.189149764E-1
3.835797419E0,-2.873042040E-2,-1.244984865E-1,-7.757213712E-1,7.861736169E-1
3.840802309E0,9.576806799E-3,-1.053448766E-1,-7.661445141E-1,7.734123575E-1
3.845837717E0,0.000000000E0,-1.723825186E-1,-7.757213712E-1,7.946441835E-1
3.850873125E0,0.000000000E0,-1.532289088E-1,-7.182605267E-1,7.344230951E-1
3.855908534E0,5.746084079E-2,-1.723825186E-1,-7.278373241E-1,7.501764135E-1
3.860943941E0,-2.873042040E-2,-1.532289088E-1,-7.757213712E-1,7.912320653E-1
3.865948832E0,-1.915361360E-2,-1.053448766E-1,-8.140285611E-1,8.210401344E-1
3.870984240E0,2.873042040E-2,-1.244984865E-1,-8.140285611E-1,8.239950294E-1
3.876019648E0,1.915361360E-2,-1.628057212E-1,-8.906430602E-1,9.056034587E-1
3.881055056E0,2.873042040E-2,-1.340752989E-1,-8.331822157E-1,8.443898551E-1
3.886059947E0,9.576806799E-3,-1.053448766E-1,-8.044517636E-1,8.113765453E-1
3.891095355E0,9.576806799E-3,-1.628057212E-1,-9.002198577E-1,9.148733302E-1
3.896130763E0,9.576806799E-3,-1.915361285E-1,-8.523358107E-1,8.736441712E-1
3.901166171E0,-1.915361360E-2,-1.149216816E-1,-8.810662031E-1,8.887359046E-1
3.906171062E0,1.915361360E-2,-1.244984865E-1,-8.523358107E-1,8.615933311E-1
3.911206469E0,9.576806799E-3,-1.149216816E-1,-8.427590132E-1,8.506124043E-1
3.916241878E0,0.000000000E0,-1.723825186E-1,-9.385270476E-1,9.542267822E-1
3.921277286E0,0.000000000E0,-9.576806426E-2,-9.672574997E-1,9.719869304E-1
3.926312694E0,-3.830722719E-2,-1.149216816E-1,-9.576807022E-1,9.653117444E-1
3.931317584E0,0.000000000E0,-1.628057212E-1,-9.768342972E-1,9.903085110E-1
3.936352993E0,0.000000000E0,-1.723825186E-1,-1.015141487E0,1.029673721E0
3.941388401E0,3.830722719E-2,-2.106897533E-1,-1.005564690E0,1.028113788E0
3.946423809E0,7.661445439E-2,-9.576806426E-2,-1.072602391E0,1.079591213E0
3.951428699E0,9.576806799E-3,-1.244984865E-1,-1.158793569E0,1.165501662E0
3.956464108E0,3.830722719E-2,-1.244984865E-1,-1.110909581E0,1.118520190E0
3.961499516E0,0.000000000E0,-1.244984865E-1,-1.168370485E0,1.174984878E0
3.966534923E0,2.873042040E-2,-8.619125932E-2,-1.110909581E0,1.114618530E0
3.971539814E0,-9.576806799E-3,-1.436520964E-1,-1.110909581E0,1.120199865E0
3.976575223E0,9.576806799E-3,-8.619125932E-2,-1.120486379E0,1.123837343E0
3.981610631E0,-9.576806799E-3,-6.703764945E-2,-1.139639974E0,1.141650135E0
3.986646038E0,4.788403213E-2,-1.149216816E-1,-1.235408068E0,1.241665401E0
3.991681447E0,-2.873042040E-2,-1.244984865E-1,-1.197100878E0,1.203900254E0
3.996686338E0,-1.915361360E-2,-5.746084079E-2,-1.264138460E0,1.265588660E0
4.001721745E0,1.915361360E-2,-8.619125932E-2,-1.283292055E0,1.286325889E0
4.006757153E0,9.576806799E-3,-1.244984865E-1,-1.331176162E0,1.337019657E0
4.011792562E0,4.788403213E-2,-1.436520964E-1,-1.484405041E0,1.492108284E0
4.016797453E0,1.915361360E-2,-1.053448766E-1,-1.618480325E0,1.622018177E0
4.021832860E0,2.873042040E-2,-8.619125932E-2,-2.011129379E0,2.013180506E0
4.026868268E0,6.703764945E-2,-8.619125932E-2,-3.792415380E0,3.793987005E0
4.031903677E0,-7.326257229E0,1.037168217E1,-3.631525040E1,3.847133020E1
4.036908567E0,-7.190266418E1,7.837658691E1,-7.821378326E1,1.320237796E2
4.041943975E0,-2.740882111E1,7.382760620E1,-7.821378326E1,1.109916880E2
4.046979383E0,3.169923019E1,2.987963676E0,-7.821378326E1,8.444622558E1
4.052014792E0,2.575203323E1,-1.632845497E1,-7.821378326E1,8.394749281E1
4.057019682E0,1.403959846E1,-9.624691010E0,-4.459918976E1,4.773712108E1
4.062055090E0,6.282385349E0,-2.106897593E0,7.316680431E0,9.871230707E0
4.067090498E0,6.799532771E-1,-6.512228847E-1,4.520252705E0,4.617262416E0
4.072125907E0,-1.149216816E-1,-2.106897533E-1,8.236053586E-1,8.578595175E-1
4.077130797E0,-6.703764945E-2,-1.819593310E-1,9.385270476E-1,9.583508041E-1
4.082166205E0,-7.661445439E-2,-1.723825186E-1,8.236053586E-1,8.449327157E-1
4.087201613E0,-5.746084079E-2,-2.106897533E-1,1.015141487E0,1.038366101E0
4.092237021E0,0.000000000E0,-1.436520964E-1,1.024718285E0,1.034738367E0
4.097241912E0,1.149216816E-1,-2.011129409E-1,7.374141216E-1,7.729378983E-1
4.102277320E0,8.619125932E-2,-1.244984865E-1,6.799532771E-1,6.966098373E-1
4.107312728E0,1.915361360E-2,-1.915361285E-1,4.788403511E-1,5.160823881E-1
4.112317618E0,-3.830722719E-2,-1.532289088E-1,3.064578176E-1,3.447650447E-1
4.117353027E0,-3.830722719E-2,-1.915361285E-1,2.777273953E-1,3.395379777E-1
4.122388435E0,9.576806799E-3,-1.149216816E-1,2.202665508E-1,2.486283602E-1
4.127423842E0,-1.915361360E-2,-1.149216816E-1,2.394201756E-1,2.662627918E-1
4.132428733E0,-4.788403213E-2,-1.819593310E-1,1.053448766E-1,2.156377094E-1
4.137464141E0,-4.788403213E-2,-1.819593310E-1,1.340752989E-1,2.310373659E-1
4.142499550E0,-2.873042040E-2,-1.340752989E-1,1.149216816E-1,1.789095183E-1
4.147534957E0,-4.788403213E-2,-1.532289088E-1,1.915361285E-1,2.499161210E-1
4.152539848E0,9.576806799E-3,-2.298433632E-1,1.053448766E-1,2.530162640E-1
4.157575256E0,-2.873042040E-2,-1.915361285E-1,1.436520964E-1,2.411378245E-1
4.162610664E0,-9.576806799E-3,-1.340752989E-1,9.576806426E-2,1.650437007E-1
4.167646072E0,1.915361360E-2,-2.298433632E-1,9.576806426E-2,2.497325662E-1
4.172650963E0,-3.830722719E-2,-2.489969730E-1,0.000000000E0,2.519264501E-1
4.177686371E0,0.000000000E0,-1.532289088E-1,0.000000000E0,1.532289088E-1
4.182721779E0,-5.746084079E-2,-1.819593310E-1,0.000000000E0,1.908165254E-1
4.187726670E0,-9.576806799E-3,-2.106897533E-1,9.576806799E-3,2.111246139E-1
4.192762078E0,1.915361360E-2,-1.723825186E-1,-3.830722719E-2,1.776233017E-1
4.197797486E0,1.915361360E-2,-1.340752989E-1,5.746084079E-2,1.471217010E-1
4.202832894E0,-2.873042040E-2,-1.723825186E-1,-2.873042040E-2,1.771062022E-1
4.207837785E0,-3.830722719E-2,-1.628057212E-1,-7.661445439E-2,1.839644561E-1
4.212873193E0,-1.915361360E-2,-1.628057212E-1,-3.830722719E-2,1.683449061E-1
4.217908600E0,9.576806799E-3,-1.628057212E-1,-9.576806799E-3,1.633680914E-1
4.222944009E0,-1.915361360E-2,-1.244984865E-1,-7.661445439E-2,1.474330651E-1
4.227948900E0,-9.576806799E-3,-2.202665508E-1,-8.619125932E-2,2.367234712E-1
4.232984308E0,-2.873042040E-2,-1.723825186E-1,-6.703764945E-2,1.871769650E-1
4.238019715E0,-1.915361360E-2,-1.819593310E-1,-7.661445439E-2,1.983578425E-1
4.243024606E0,-4.788403213E-2,-2.202665508E-1,-4.788403213E-2,2.304411301E-1
4.248060015E0,2.873042040E-2,-1.340752989E-1,-1.053448766E-1,1.729137527E-1
4.253095422E0,-1.915361360E-2,-2.011129409E-1,-1.149216816E-1,2.324226082E-1
4.258130830E0,3.830722719E-2,-1.532289088E-1,-9.576806426E-2,1.847107584E-1
4.263135721E0,-6.703764945E-2,-2.011129409E-1,-1.149216816E-1,2.411378327E-1
4.268171130E0,-9.576806799E-3,-1.915361285E-1,-1.149216816E-1,2.235727995E-1
4.273206537E0,-9.576806799E-3,-1.628057212E-1,-8.619125932E-2,1.844623302E-1
4.278211428E0,-8.619125932E-2,-2.202665508E-1,-1.723825186E-1,2.926807464E-1
4.283246836E0,-2.873042040E-2,-2.106897533E-1,-1.053448766E-1,2.373039238E-1
4.288282244E0,9.576806799E-3,-2.681505978E-1,-8.619125932E-2,2.818251080E-1
4.293317652E0,-1.915361360E-2,-1.244984865E-1,-8.619125932E-2,1.526291821E-1
4.298322543E0,6.703764945E-2,-2.202665508E-1,-1.053448766E-1,2.531974385E-1
4.303357951E0,-1.915361360E-2,-1.915361285E-1,-1.628057212E-1,2.521084138E-1
4.308393359E0,0.000000000E0,-2.011129409E-1,-1.532289088E-1,2.528349531E-1
4.313428767E0,-2.873042040E-2,-2.106897533E-1,-1.340752989E-1,2.513797824E-1
4.318433658E0,-9.576806799E-3,-1.915361285E-1,-1.819593310E-1,2.643614985E-1
4.323469065E0,9.576806799E-3,-1.819593310E-1,-7.661445439E-2,1.976630669E-1
4.328504474E0,9.576806799E-3,-1.723825186E-1,-1.628057212E-1,2.373039208E-1
4.333509364E0,1.915361360E-2,-2.202665508E-1,-2.202665508E-1,3.120922423E-1
4.338544773E0,-6.703764945E-2,-1.628057212E-1,-1.819593310E-1,2.531974475E-1
4.343580180E0,9.576806799E-3,-2.106897533E-1,-2.298433632E-1,3.119452820E-1
4.348615589E0,9.576806799E-3,-2.011129409E-1,-2.011129409E-1,2.845778369E-1
4.353620479E0,-5.746084079E-2,-2.202665508E-1,-1.628057212E-1,2.798656900E-1
4.358655887E0,-1.915361360E-2,-2.489969730E-1,-2.202665508E-1,3.329920523E-1
4.363691295E0,2.873042040E-2,-1.819593310E-1,-1.244984865E-1,2.223387244E-1
4.368726704E0,9.576806799E-3,-2.202665508E-1,-1.723825186E-1,2.798656845E-1
4.373731594E0,0.000000000E0,-1.628057212E-1,-1.723825186E-1,2.371105978E-1
4.378767002E0,-9.576806799E-3,-2.202665508E-1,-1.819593310E-1,2.858640704E-1
4.383802410E0,-5.746084079E-2,-1.819593310E-1,-2.394201756E-1,3.061584015E-1
4.388807301E0,9.576806799E-3,-1.819593310E-1,-2.394201756E-1,3.008702940E-1
4.393842709E0,9.576806799E-3,-2.394201756E-1,-2.585737705E-1,3.525253615E-1
4.398878117E0,-9.576806799E-3,-1.723825186E-1,-2.585737705E-1,3.109145265E-1
4.403913525E0,1.915361360E-2,-1.819593310E-1,-2.777273953E-1,3.325786601E-1
4.408918416E0,-1.915361360E-2,-1.915361285E-1,-3.160346150E-1,3.700416562E-1
4.413953823E0,-2.873042040E-2,-2.011129409E-1,-4.405331016E-1,4.851198467E-1
4.418989232E0,4.788403213E-2,-8.619125932E-2,-8.427590132E-1,8.485072587E-1
4.424024640E0,-6.110002518E0,-4.405331016E-1,-2.716940117E1,2.785143731E1
4.429029531E0,-2.483266068E1,-4.261679173E0,-7.821378326E1,8.217188593E1
4.434064938E0,-3.944686890E1,-2.472731590E1,-7.821378326E1,9.102137941E1
4.439100347E0,-4.246356201E1,-4.467580414E1,-7.821378326E1,9.958151167E1
4.444135755E0,-3.170880699E1,-5.269158936E1,-7.821378326E1,9.949496431E1
4.449140645E0,-1.609861183E1,-5.197333145E1,-5.610093307E1,7.815182133E1
4.454176053E0,-1.158793569E0,-4.353616333E1,-1.206677628E1,4.519233795E1
4.459211462E0,7.058106422E0,-1.008437729E1,5.786306763E1,5.915780698E1
4.464216352E0,2.738966703E0,3.090435600E1,7.739974976E1,8.338646425E1
4.469251760E0,6.703764945E-2,3.809653854E1,3.796246338E1,5.378196137E1
4.474287168E0,7.565677166E-1,1.318726254E1,1.274672985E1,1.835634522E1
4.479322577E0,-7.469909191E-1,-3.591302633E0,1.733402014E0,4.057108894E0
4.484327466E0,-1.110909581E0,-6.789956093E0,-1.197100878E0,6.983600386E0
4.489362875E0,-8.810662031E-1,-6.847416878E0,-3.428496838E0,7.708306307E0
4.494398283E0,-3.830722719E-2,-6.177040577E0,-1.252646351E1,1.396673139E1
4.499403174E0,3.581725836E0,-4.290409565E0,-3.316448212E1,3.363211632E1
4.504438581E0,3.725377798E0,-1.532289028E0,-4.385219955E1,4.403682272E1
4.509473990E0,4.309563041E-1,4.692635238E-1,-3.846045685E1,3.846573375E1
4.514509398E0,-3.045424461E0,6.416460276E-1,-2.372175026E1,2.392504452E1
4.519514288E0,-3.150769472E0,-2.873042040E-2,-1.245942593E1,1.285167180E1
4.524549696E0,-1.139639974E0,-5.075707436E-1,-6.426037312E0,6.546018856E0
4.529585105E0,7.086837292E-1,-7.948749661E-1,-3.993528366E0,4.133077262E0
4.534589996E0,9.193734527E-1,-7.757213712E-1,-3.256114244E0,3.471206010E0
4.539625403E0,1.158793569E0,-6.799532771E-1,-3.169923067E0,3.442898669E0
4.544660811E0,1.283292055E0,-7.565677166E-1,-3.208230257E0,3.537226963E0
4.549696220E0,1.206677675E0,-9.097966552E-1,-3.600879431E0,3.905141949E0
4.554701110E0,1.197100878E0,-1.082179189E0,-4.529829502E0,4.808691883E0
4.559736518E0,1.120486379E0,-1.455674648E0,-5.975927353E0,6.251894604E0
4.564771926E0,1.436521053E0,-2.011129379E0,-8.571242332E0,8.920450058E0
4.569807335E0,1.963245392E0,-2.786850691E0,-1.041956615E1,1.096303918E1
4.574812225E0,2.288856745E0,-3.265691042E0,-1.139640045E1,1.207400292E1
4.579847633E0,2.595314741E0,-3.524264812E0,-1.107078838E1,1.190455612E1
4.584883041E0,2.509123325E0,-3.438073635E0,-9.854534149E0,1.073442562E1
4.589918450E0,2.202665567E0,-3.217807055E0,-8.140285492E0,9.026088064E0
4.594923340E0,1.991975784E0,-2.901772499E0,-6.646304131E0,7.520745293E0
4.599958748E0,1.905784607E0,-2.796427488E0,-5.832275391E0,6.742956169E0
4.604994156E0,1.800439715E0,-2.614468336E0,-5.832275391E0,6.640215665E0
4.609999046E0,1.915361404E0,-2.729389906E0,-7.105990410E0,7.849412607E0
4.615034455E0,2.279279947E0,-3.055001259E0,-9.864110947E0,1.057491534E1
4.620069863E0,2.442085743E0,-3.189076662E0,-1.250730991E1,1.313646809E1
4.625105271E0,2.183511972E0,-3.141192675E0,-1.704671669E1,1.747070021E1
4.630110161E0,-1.398213744E0,-1.244984865E0,-1.397256088E1,1.409742695E1
4.635145570E0,-5.477933407E0,3.217807055E0,-7.077260017E0,9.510501880E0
4.640180978E0,-3.945644379E0,6.732495308E0,-7.987056732E0,1.116636368E1
4.645185868E0,8.810662031E-1,5.793968201E0,-1.794693565E1,1.887958804E1
4.650221276E0,4.692635536E0,1.972822189E0,-2.119347382E1,2.179624252E1
4.655256685E0,3.859453201E0,-4.501099288E-1,-1.434605694E1,1.486295151E1
4.660292093E0,7.086837292E-1,-8.906430602E-1,-7.833827972E0,7.916080999E0
4.665296983E0,-5.458779931E-1,-8.523358107E-1,-5.142745018E0,5.241401095E0
4.670332391E0,-8.523358107E-1,-8.427590132E-1,-4.663905144E0,4.815467815E0
4.675367800E0,-1.091755986E0,-9.097966552E-1,-5.104437828E0,5.298579680E0
4.680403207E0,-1.034295082E0,-8.810662031E-1,-6.655880928E0,6.793143227E0
4.685408098E0,0.000000000E0,-9.864110947E-1,-9.174580574E0,9.227455530E0
4.690443506E0,1.024718285E0,-1.034295082E0,-1.209550667E1,1.218281968E1
4.695478915E0,1.187524080E0,-9.193734527E-1,-1.443224812E1,1.451017735E1
4.700483804E0,2.059013367E0,-1.695094824E0,-9.327810287E0,9.701594058E0
4.705519213E0,3.543418407E0,-1.704671621E0,-9.557653427E0,1.033491453E1
4.710554621E0,1.781286120E0,-1.350329757E0,-1.050575733E1,1.074091746E1
4.715590029E0,4.501099288E-1,-3.830722719E-2,4.520252705E0,4.542769079E0
4.720594919E0,-3.524264812E0,2.767697096E0,-1.343626022E1,1.416381582E1
4.725630328E0,-6.320692539E0,3.112462282E0,-1.880884933E1,2.008510366E1
4.730665736E0,-5.046977043E0,2.279279947E0,-2.003467941E1,2.078594413E1
4.735701143E0,-1.149216816E-1,9.193734527E-1,-1.505473995E1,1.508322411E1
4.740706034E0,1.924938202E0,2.968810201E-1,-7.872135162E0,8.109502909E0
4.745741443E0,1.187524080E0,6.991068721E-1,-3.964797974E0,4.197450039E0
4.750776851E0,-4.788403213E-2,1.292868972E0,-3.562572241E0,3.790214246E0
4.755781741E0,-1.273715258E0,1.379060149E0,-5.698200226E0,5.999470249E0
4.760817149E0,-2.068590164E0,7.469909191E-1,-8.820239067E0,9.090306810E0
4.765852558E0,-2.509123325E0,2.394201756E-1,-1.198058510E1,1.224285266E1
4.770887965E0,-2.624045134E0,1.053448766E-1,-1.354160500E1,1.379390359E1
4.775892856E0,-2.595314741E0,2.777273953E-1,-1.314895535E1,1.340551445E1
4.780928264E0,-3.236960649E0,6.320692301E-1,-1.169328117E1,1.214949589E1
4.785963673E0,-3.849876404E0,8.140285611E-1,-1.042914295E1,1.114680284E1
4.790999080E0,-4.108449936E0,1.005564690E0,-9.998186111E0,1.085606958E1
4.796003971E0,-4.347870350E0,1.158793569E0,-1.004607010E1,1.100773835E1
4.801039379E0,-4.271255970E0,1.264138460E0,-1.041956615E1,1.133177093E1
4.806074787E0,-3.878606796E0,1.273715258E0,-1.077390766E1,1.152141604E1
4.811079677E0,-3.524264812E0,1.503558636E0,-1.073560047E1,1.139887049E1
4.816115086E0,-1.513135433E0,1.666364431E0,-1.075475407E1,1.098776976E1
4.821150494E0,2.011129409E-1,1.589749932E0,-1.054406452E1,1.066513234E1
4.826185902E0,2.652775526E0,1.312022567E0,-1.095586681E1,1.134855228E1
4.831190792E0,4.118026733E0,8.236053586E-1,-1.093671322E1,1.171529624E1
4.836226201E0,5.573701382E0,3.064578176E-1,-1.159751320E1,1.287098970E1
4.841261608E0,6.722918510E0,4.213795066E-1,-1.176989555E1,1.356118119E1
4.846297017E0,6.924031258E0,6.607996821E-1,-1.191354752E1,1.379534267E1
4.851301907E0,6.119579315E0,1.177947283E0,-1.224873543E1,1.374293747E1
4.856337316E0,5.075707436E0,1.800439715E0,-1.234450436E1,1.346815418E1
4.861372723E0,4.472368717E0,2.221819162E0,-1.265096188E1,1.360093374E1
4.866377614E0,4.529829502E0,2.470816135E0,-1.267969227E1,1.368937119E1
4.871413022E0,4.491522312E0,2.384624958E0,-1.265096188E1,1.363477338E1
4.876448430E0,4.156333923E0,1.924938202E0,-1.276588345E1,1.356275337E1
4.881483838E0,3.533841610E0,1.312022567E0,-1.311064816E1,1.364179368E1
4.886488729E0,3.055001259E0,6.895300746E-1,-1.373314095E1,1.408572485E1
4.891524137E0,2.221819162E0,3.543418646E-1,-1.463336086E1,1.480531285E1
4.896559545E0,1.110909581E0,4.405331016E-1,-1.552400398E1,1.556993543E1
4.901594953E0,-5.650315881E-1,5.554547906E-1,-1.635718536E1,1.637636418E1
4.906599844E0,-1.972822189E0,8.427590132E-1,-1.698925591E1,1.712416673E1
4.911635251E0,-3.016694069E0,1.177947283E0,-1.742021179E1,1.771868454E1
4.916670660E0,-3.380612850E0,1.599326730E0,-1.723825264E1,1.763926709E1
4.921706068E0,-3.476380825E0,1.896207690E0,-1.669237518E1,1.715564678E1
4.926710959E0,-3.323152065E0,2.193088770E0,-1.572511673E1,1.622135241E1
4.931746366E0,-3.035847664E0,2.394201756E0,-1.457590008E1,1.507996804E1
4.936781775E0,-2.480392933E0,2.193088770E0,-1.345541382E1,1.385677266E1
4.941786666E0,-2.662352324E0,1.771709204E0,-1.221042824E1,1.262226727E1
4.946822074E0,-3.821146011E0,1.149216771E0,-1.069729328E1,1.141726498E1
4.951857481E0,-5.343858242E0,1.101332784E0,-9.739612579E0,1.116377212E1
4.956892890E0,-6.703764915E0,1.197100878E0,-8.762778282E0,1.109773841E1
4.961897781E0,-7.785943985E0,1.541865945E0,-8.504204750E0,1.163270273E1
4.966933188E0,-7.958326340E0,2.001552582E0,-7.795520782E0,1.131862691E1
4.971968596E0,-8.303091049E0,2.193088770E0,-7.546523571E0,1.143245281E1
4.977004005E0,-8.609549522E0,2.250549555E0,-6.560112476E0,1.105551410E1
4.982008896E0,-1.050575733E1,1.963245392E0,-5.544970989E0,1.204043076E1
4.987044303E0,-1.531331444E1,1.513135433E0,-5.094861031E0,1.620940427E1
4.992079711E0,-2.296518326E1,2.987963676E0,-7.939172745E0,2.448178982E1
4.997084602E0,-1.953668594E1,3.591302633E0,-8.255207062E0,2.151111331E1
5.002120010E0,-1.365652657E1,3.035847664E0,-7.651868820E0,1.594578895E1
5.007155418E0,-7.383718014E0,-2.777273953E-1,-3.658340216E0,8.244991046E0
5.012190826E0,-3.629609823E0,-2.250549555E0,-5.746083856E-1,4.309201268E0
5.017195717E0,-4.012681961E0,-2.126051188E0,8.714894056E-1,4.623981397E0
5.022231124E0,-4.108449936E0,-1.896207690E0,2.020706177E0,4.955624878E0
5.027266533E0,-3.907337189E0,-2.193088770E0,3.265691042E0,5.544516231E0
5.032301941E0,-4.060565948E0,-1.905784607E0,6.196194172E0,7.649381217E0
5.037306831E0,-4.127603531E0,-1.446097851E0,9.864110947E0,1.079022681E1
5.042342239E0,-3.351882458E0,-7.852981687E-1,1.509304714E1,1.548069382E1
5.047377648E0,-2.987963676E0,-7.182605267E-1,1.589749908E1,1.619179738E1
5.052382539E0,-2.710236311E0,-1.091755986E0,1.175074196E1,1.210856096E1
5.057417946E0,-9.289502501E-1,-7.757213712E-1,6.569689274E0,6.680232733E0
5.062453354E0,2.719813108E0,-6.991068721E-1,1.896207690E0,3.388471243E0
5.067488763E0,1.447055531E1,-2.097320795E0,-1.446097851E0,1.469309104E1
5.072493653E0,3.161303902E1,-4.548983097E0,-4.041412354E0,3.219333001E1
5.077529061E0,4.635174561E1,-7.805097580E0,-4.635174274E0,4.723228461E1
5.082564469E0,5.232767105E1,-1.126232433E1,-4.826710701E0,5.374311345E1
5.087569360E0,4.939717102E1,-1.359906578E1,-4.807557106E0,5.145996211E1
5.092604768E0,4.009809113E1,-1.348414421E1,-4.970362663E0,4.259558148E1
5.097640176E0,2.785893059E1,-1.116655636E1,-4.357447147E0,3.032819381E1
5.102675584E0,1.709460068E1,-7.776367188E0,-3.045424461E0,1.902555831E1
5.107680474E0,9.672574997E0,-4.788403511E0,-1.800439715E0,1.094207926E1
5.112715883E0,5.085284233E0,-2.815581083E0,-9.576807022E-1,5.891075020E0
5.117751291E0,2.422932148E0,-1.618480325E0,-3.447650373E-1,2.934099809E0
5.122786699E0,9.002198577E-1,-9.672574997E-1,2.106897533E-1,1.338048219E0
5.127791589E0,2.873042040E-2,-6.607996821E-1,6.991068721E-1,9.624095155E-1
5.132826998E0,-6.033388376E-1,-5.937620401E-1,1.158793569E0,1.435051793E0
5.137862406E0,-1.072602391E0,-5.171475410E-1,1.829170108E0,2.182608703E0
5.142867297E0,-1.158793569E0,-2.011129409E-1,2.250549555E0,2.539335001E0
5.147902704E0,-5.746083856E-1,6.991068721E-1,2.499546528E0,2.658318653E0
5.152938113E0,3.543418646E-1,1.580173135E0,2.557007313E0,3.026679978E0
5.157973521E0,1.359906554E0,2.384624958E0,2.614468336E0,3.790940082E0
5.162978411E0,2.576161146E0,2.949656487E0,2.566584110E0,4.682353429E0
5.168013819E0,3.696647406E0,3.074155092E0,2.346317768E0,5.349844731E0
5.173049228E0,4.817133904E0,2.911349297E0,1.685518026E0,5.875517406E0
5.178084636E0,5.784391403E0,2.585737944E0,7.661445141E-1,6.382178471E0
5.183089526E0,6.512228489E0,1.924938202E0,-2.202665508E-1,6.794337667E0
5.188124934E0,6.694188118E0,1.187524080E0,-1.158793569E0,6.896750723E0
5.193160343E0,6.301538944E0,4.405331016E-1,-2.221819162E0,6.696263351E0
5.198165232E0,5.468356609E0,-1.628057212E-1,-2.604891539E0,6.059281281E0
5.203200641E0,3.687070608E0,-5.075707436E-1,-2.796427488E0,4.655332902E0
5.208236049E0,1.963245392E0,-6.799532771E-1,-2.959233284E0,3.615761408E0
5.213271458E0,3.639186621E-1,-6.895300746E-1,-3.275267839E0,3.366788965E0
5.218276347E0,-1.321599364E0,-5.937620401E-1,-4.194641590E0,4.437814362E0
5.223311756E0,-2.978386879E0,-6.320692301E-1,-6.368576527E0,7.058970668E0
5.228347164E0,-4.041412354E0,-5.458779931E-1,-1.200931549E1,1.268284886E1
5.233382572E0,-6.713341713E0,-1.244984865E-1,-3.021482468E1,3.095189957E1
5.238387462E0,-9.730035782E0,1.436520964E-1,-7.046614075E1,7.113488050E1
5.243422871E0,-1.948880196E1,6.033388376E-1,-7.158663177E1,7.419449621E1
5.248458279E0,-1.791820526E1,3.926490843E-1,-4.249229050E1,4.611736121E1
5.253493687E0,-1.002691650E1,5.171475410E-1,-1.599326706E1,1.888361955E1
5.258498577E0,-4.855441093E0,9.193734527E-1,-6.042964935E0,7.806278304E0
5.263533986E0,-6.991068721E-1,7.278373241E-1,-4.510675907E0,4.622195877E0
5.268569394E0,1.532289028E0,2.106897533E-1,-2.930502892E0,3.313630492E0
5.273574284E0,1.647210717E0,0.000000000E0,-1.819593310E0,2.454429254E0
5.278609692E0,1.484405041E0,-9.576806799E-3,-1.340752959E0,2.000292113E0
5.283645101E0,1.714248419E0,-1.915361360E-2,-1.024718285E0,1.997263644E0
5.288680508E0,2.011129379E0,5.746084079E-2,-9.193734527E-1,2.212055757E0
5.293685399E0,2.365471363E0,7.661445439E-2,-8.331822157E-1,2.509086915E0
5.298720807E0,2.633621931E0,2.298433632E-1,-1.024718285E0,2.835284820E0
5.303756216E0,2.748543501E0,3.447650373E-1,-1.446097851E0,3.124828524E0
5.308791623E0,2.748543501E0,2.681505978E-1,-2.231395960E0,3.550425897E0
5.313796514E0,2.844311714E0,2.873041928E-1,-3.878606796E0,4.818323724E0
5.318831922E0,3.045424461E0,1.340752989E-1,-5.899312973E0,6.640367451E0
5.323867330E0,3.122039080E0,2.202665508E-1,-9.270348549E0,9.784426789E0
5.328872220E0,3.380612850E0,2.106897533E-1,-1.353202820E1,1.394950610E1
5.333907629E0,2.528276920E0,7.948749661E-1,-2.289814568E1,2.305101052E1
5.338943037E0,-2.202665567E0,1.762132406E0,-2.873999786E1,2.887809418E1
5.343978445E0,-5.497087002E0,1.130063176E0,-2.352063751E1,2.418088909E1
5.348983335E0,-4.654327869E0,2.202665508E-1,-1.450886250E1,1.523871307E1
5.354018744E0,-2.030282974E0,-5.171475410E-1,-8.695740700E0,8.944573598E0
5.359054151E0,3.543418646E-1,-7.757213712E-1,-1.972822189E0,2.149262477E0
5.364089560E0,-1.379060149E0,-3.083731890E0,6.081272125E0,6.956513489E0
5.369094450E0,-1.340752989E-1,8.140285611E-1,-6.914454460E0,6.963497624E0
5.374129859E0,2.700659513E0,2.059013367E0,-1.100375080E1,1.151588596E1
5.379165266E0,4.711789131E0,1.158793569E0,-1.002691650E1,1.113924656E1
5.384200675E0,4.347870350E0,5.363011956E-1,-1.070687008E1,1.156843388E1
5.389205565E0,1.877054095E0,8.619126081E-1,-1.098459721E1,1.117710165E1
5.394240973E0,8.619126081E-1,4.118026793E-1,-1.017056847E1,1.021532857E1
5.399276381E0,1.484405041E0,-7.852981687E-1,-9.739612579E0,9.883329638E0
5.404311790E0,2.681505978E-1,-2.011129409E-1,-1.144428444E1,1.144919200E1
5.409316680E0,-6.703764796E-1,5.363011956E-1,-1.240196514E1,1.243164361E1
5.414352088E0,-3.639186621E-1,4.309563041E-1,-1.199016190E1,1.200342211E1
5.419387496E0,4.118026793E-1,4.788403213E-2,-1.139640045E1,1.140393869E1
5.424422905E0,1.139639974E0,-1.340752989E-1,-1.049618053E1,1.055871968E1
5.429427794E0,1.340752959E0,7.661445439E-2,-1.002691650E1,1.011644912E1
5.434463203E0,1.321599364E0,3.734954596E-1,-9.806650162E0,9.902348768E0
5.439498611E0,1.187524080E0,5.458779931E-1,-9.720458984E0,9.807931438E0
5.444534020E0,1.283292055E0,6.129156351E-1,-9.548076630E0,9.653407243E0
5.449569427E0,6.799532771E-1,3.064578176E-1,-9.787496567E0,9.815871938E0
5.454574318E0,9.002198577E-1,1.723825186E-1,-1.003649330E1,1.007825924E1
5.459609726E0,4.979939461E-1,5.746083856E-1,-8.006210327E0,8.042237038E0
5.464645135E0,1.264138460E0,5.746084079E-2,-1.101332760E1,1.108578967E1
5.469680542E0,3.217807055E0,6.991068721E-1,-1.050575733E1,1.100972160E1
5.474685433E0,8.504204750E0,1.407790542E0,-1.225831223E1,1.498564617E1
5.479720841E0,4.443638325E0,8.236053586E-1,-1.074517727E1,1.165688989E1
5.484756249E0,3.639186621E-1,7.374141216E-1,-7.431602001E0,7.476959588E0
5.489791657E0,-2.221819162E0,-1.532289088E-1,-7.335834026E0,7.666447701E0
5.494796548E0,-2.901772499E0,-5.554547906E-1,-9.232041359E0,9.693265771E0
5.499831956E0,-3.562572241E0,-1.053448766E-1,-1.077390766E1,1.134813222E1
5.504867364E0,-3.821146011E0,6.607996821E-1,-1.022802925E1,1.093848232E1
5.509902772E0,-3.064578056E0,4.596867263E-1,-8.485051155E0,9.033218898E0
5.514907663E0,-1.934514999E0,-2.106897533E-1,-7.163451672E0,7.423057208E0
5.519943070E0,-9.768342972E-1,-5.363011956E-1,-7.173028469E0,7.259074434E0
5.524978479E0,-2.777273953E-1,-3.543418646E-1,-7.613561630E0,7.626861174E0
5.530013887E0,3.447650373E-1,-1.149216816E-1,-7.718906403E0,7.727456630E0
5.535018778E0,1.675941229E0,1.053448766E-1,-9.165003777E0,9.317573223E0
5.540054185E0,3.112462282E0,3.351882398E-1,-1.240196514E1,1.279095430E1
5.545089594E0,3.514688015E0,2.968810201E-1,-1.468124485E1,1.509901058E1
5.550125002E0,2.537853718E0,3.734954596E-1,-1.424071217E1,1.446990267E1
5.555160410E0,1.187524080E0,5.363011956E-1,-1.115697956E1,1.123281022E1
5.560165300E0,3.160346150E-1,6.799532771E-1,-7.900865555E0,7.936365091E0
5.565200708E0,-3.351882398E-1,7.565677166E-1,-6.234501362E0,6.289177458E0
5.570236117E0,-5.363011956E-1,8.236053586E-1,-6.320692539E0,6.396647476E0
5.575271524E0,-5.363011956E-1,1.101332784E0,-7.671022415E0,7.768213293E0
5.580306933E0,0.000000000E0,1.254561663E0,-9.212887764E0,9.297915138E0
5.585311823E0,1.197100878E0,1.130063176E0,-1.038125896E1,1.051097669E1
5.590347232E0,1.331176162E0,8.619126081E-1,-1.135809326E1,1.146826952E1
5.595382639E0,1.628057212E-1,6.224924326E-1,-1.100375080E1,1.102254663E1
5.600418048E0,-2.394201756E-1,1.340752989E-1,-1.015141487E1,1.015512295E1
5.605453456E0,6.703764796E-1,4.309563041E-1,-9.892841339E0,9.924889809E0
5.610458346E0,1.991975784E0,7.374141216E-1,-1.032379818E1,1.054004535E1
5.615493754E0,2.087743998E0,7.661445141E-1,-1.153047562E1,1.174297749E1
5.620529163E0,1.254561663E0,4.213795066E-1,-1.288080502E1,1.294861473E1
5.625564571E0,-3.064578176E-1,1.340752989E-1,-1.380017853E1,1.380423196E1
5.630599978E0,-1.158793569E0,2.873042040E-2,-1.416409683E1,1.421144845E1
5.635604869E0,-1.302445769E0,2.106897533E-1,-1.418325043E1,1.424448482E1
5.640640278E0,-9.481038451E-1,5.267243981E-1,-1.393425369E1,1.397640030E1
5.645675685E0,-4.213795066E-1,8.714894056E-1,-1.403002167E1,1.406337664E1
5.650711093E0,-9.385270476E-1,1.312022567E0,-1.505473995E1,1.514091910E1
5.655746502E0,-6.416460276E-1,2.001552582E0,-1.665406609E1,1.678618002E1
5.660751393E0,5.746084079E-2,2.920926094E0,-1.819593239E1,1.842897356E1
5.665786800E0,4.022258818E-1,4.137180328E0,-1.779370689E1,1.827276804E1
5.670822208E0,3.830722570E-1,5.142745018E0,-1.616564941E1,1.696828782E1
5.675857617E0,-3.639186621E-1,5.832275391E0,-1.463336086E1,1.575700235E1
5.680893025E0,-1.417367458E0,5.995080948E0,-1.357991219E1,1.491187249E1
5.685897915E0,-3.045424461E0,6.234501362E0,-1.309149456E1,1.481657340E1
5.690933323E0,-4.462791920E0,5.995080948E0,-1.269884586E1,1.473493107E1
5.695968732E0,-6.157886982E0,5.679046631E0,-1.238281155E1,1.495008911E1
5.701004139E0,-7.211335659E0,5.640739441E0,-1.311064816E1,1.599094739E1
5.706009030E0,-8.638279915E0,6.789956093E0,-1.329260826E1,1.724577682E1
5.711044438E0,-9.730035782E0,7.709329605E0,-1.188481712E1,1.718593138E1
5.716079847E0,-8.724471092E0,6.426037312E0,-1.092713642E1,1.538871865E1
5.721115254E0,-8.159439087E0,5.181052685E0,-9.069235802E0,1.325408583E1
5.726150663E0,-7.757213593E0,4.386177540E0,-8.963891029E0,1.263978871E1
5.731155553E0,-7.536946774E0,3.955221176E0,-9.548076630E0,1.279121216E1
5.736190961E0,-8.015787125E0,3.734954596E0,-1.054406452E1,1.376154155E1
5.741226369E0,-8.820239067E0,3.409343243E0,-1.130063248E1,1.473514618E1
5.746261778E0,-9.203310966E0,3.016694069E0,-1.220085144E1,1.557761701E1
5.751297186E0,-9.069235802E0,2.499546528E0,-1.236365795E1,1.553572685E1
5.756302076E0,-8.647856712E0,1.771709204E0,-1.224873543E1,1.509820846E1
5.761337484E0,-8.398859978E0,9.864110947E-1,-1.203804588E1,1.471150585E1
5.766372892E0,-8.293514252E0,4.979939461E-1,-1.159751320E1,1.426648832E1
5.771408301E0,-8.408436775E0,3.351882398E-1,-1.087925243E1,1.375399192E1
5.776443708E0,-8.408436775E0,2.106897533E-1,-1.012268448E1,1.316111470E1
5.781448599E0,-8.944737434E0,4.788403511E-1,-9.481039047E0,1.304330162E1
5.786484007E0,-9.567230225E0,5.363011956E-1,-9.337387085E0,1.337932400E1
5.791519415E0,-1.050575733E1,5.267243981E-1,-9.691728592E0,1.430307585E1
5.796554823E0,-1.157835960E1,4.213795066E-1,-1.047702694E1,1.562062948E1
5.801559714E0,-1.239238834E1,2.585737705E-1,-1.156878281E1,1.695508434E1
5.806595122E0,-1.267011547E1,1.723825186E-1,-1.293826580E1,1.810967321E1
5.811630530E0,-1.306276417E1,4.118026793E-1,-1.431732655E1,1.938533540E1
5.816665938E0,-1.340752983E1,8.523358107E-1,-1.546654320E1,2.048663689E1
5.821701347E0,-1.368525696E1,1.599326730E0,-1.627099419E1,2.132110119E1
5.826736754E0,-1.382890892E1,2.317587137E0,-1.702756310E1,2.205782938E1
5.831741645E0,-1.413536644E1,3.093308687E0,-1.778413010E1,2.292711116E1
5.836777053E0,-1.417367363E1,3.897760391E0,-1.846408272E1,2.360101504E1
5.841812462E0,-1.442267132E1,4.606443882E0,-1.893334770E1,2.424261596E1
5.846847869E0,-1.465251446E1,5.209783077E0,-1.870350456E1,2.432404371E1
5.851883277E0,-1.501643276E1,5.803544998E0,-1.771709251E1,2.393887538E1
5.856888168E0,-1.526543045E1,6.320692539E0,-1.664448929E1,2.345258077E1
5.861923577E0,-1.556231117E1,6.732495308E0,-1.561019516E1,2.304756419E1
5.866958984E0,-1.572511673E1,7.019799232E0,-1.448013210E1,2.249958007E1
5.871994392E0,-1.582088470E1,7.268796444E0,-1.356075859E1,2.206875547E1
5.877029801E0,-1.644337654E1,7.565677166E0,-1.282334423E1,2.218247642E1
5.882034691E0,-1.718079185E1,7.766790390E0,-1.192312431E1,2.230837365E1
5.887070099E0,-1.798524284E1,7.766790390E0,-1.080263805E1,2.237161107E1
5.892105507E0,-1.898123169E1,7.833827972E0,-9.548076630E0,2.264556876E1
5.897140916E0,-2.012087059E1,7.603984833E0,-8.561665535E0,2.315107201E1
5.902176323E0,-2.117432022E1,7.383718014E0,-7.651868820E0,2.369435006E1
5.907181214E0,-2.184469604E1,7.000645638E0,-6.531382084E0,2.385075966E1
5.912216622E0,-2.224692154E1,6.560112476E0,-5.410895824E0,2.381676694E1
5.917252030E0,-2.260126495E1,6.004657745E0,-4.616020679E0,2.383654210E1
5.922287438E0,-2.301306725E1,5.181052685E0,-3.859453201E0,2.390271846E1
5.927292329E0,-2.307052803E1,4.472368717E0,-3.284844637E0,2.372849658E1
5.932327737E0,-2.275449371E1,3.878606796E0,-2.662352324E0,2.323572023E1
5.937363145E0,-2.216073036E1,3.495534420E0,-1.886630893E0,2.251390919E1
5.942398553E0,-2.141374016E1,3.160346270E0,-1.024718285E0,2.166993548E1
5.947433962E0,-2.135627937E1,2.968810081E0,-8.236053586E-1,2.157736842E1
5.952438851E0,-2.157654572E1,2.566584110E0,-1.082179189E0,2.175559217E1
5.957474260E0,-2.133712578E1,2.308010340E0,-7.661445439E-2,2.146172682E1
5.962509668E0,-2.074336433E1,2.346317768E0,1.446097851E0,2.092566773E1
5.967545076E0,-1.968033791E1,2.193088770E0,2.691082716E0,1.998417536E1
5.972549966E0,-1.871308136E1,2.097320795E0,3.514688015E0,1.915544832E1
5.977585375E0,-1.782243729E1,2.068590164E0,3.888183594E0,1.835854863E1
5.982620783E0,-1.706587029E1,2.078166962E0,4.299986362E0,1.772152898E1
5.987656191E0,-1.640506935E1,2.039859772E0,4.912901878E0,1.724598310E1
5.992691599E0,-1.590707588E1,1.982398987E0,5.008669853E0,1.679439617E1
5.997696490E0,-1.565807915E1,2.193088770E0,4.912901878E0,1.655662060E1
6.002731898E0,-1.558146477E1,2.298433542E0,4.491522312E0,1.637799175E1
6.007767305E0,-1.555273438E1,2.413355350E0,4.194641590E0,1.628824265E1
6.012802714E0,-1.531331444E1,2.193088770E0,4.137180328E0,1.601322886E1
6.017838122E0,-1.483447361E1,1.867477298E0,3.993528366E0,1.547570184E1
6.022843013E0,-1.426944256E1,1.570596337E0,3.744531393E0,1.483594551E1
6.027878420E0,-1.370441055E1,1.321599364E0,3.562572241E0,1.422144207E1
6.032913829E0,-1.310107136E1,1.120486379E0,3.581725836E0,1.362799767E1
6.037949237E0,-1.245942593E1,9.959878922E-1,3.964797974E0,1.311292909E1
6.042984646E0,-1.188481712E1,7.757213712E-1,4.127603531E0,1.260506774E1
6.047989535E0,-1.142513084E1,6.033388376E-1,4.204218388E0,1.218905594E1
6.053024944E0,-1.079306126E1,4.501099288E-1,4.299986362E0,1.162680751E1
6.058060352E0,-1.019929886E1,4.309563041E-1,4.424484730E0,1.112598246E1
6.063095760E0,-9.356540680E0,2.873041928E-1,4.548983097E0,1.040772042E1
6.068100650E0,-8.178592682E0,4.405331016E-1,4.979939461E0,9.585574824E0
6.073136059E0,-7.029376030E0,6.129156351E-1,5.228936672E0,8.782344315E0
6.078171467E0,-5.928043365E0,9.768342972E-1,5.315127850E0,8.021626234E0
6.083206875E0,-5.286397457E0,1.474828243E0,4.951209068E0,7.391588981E0
6.088242283E0,-4.874594688E0,2.059013367E0,4.644751072E0,7.040946097E0
6.093247174E0,-4.299986362E0,2.777273893E0,4.434061527E0,6.772299065E0
6.098282581E0,-3.974374771E0,3.227383852E0,4.529829502E0,6.836008826E0
6.103317990E0,-3.869029999E0,3.476380825E0,4.797980309E0,7.076385505E0
6.108353398E0,-4.012681961E0,3.687070608E0,4.989516258E0,7.388597883E0
6.113358289E0,-4.252102375E0,3.734954596E0,5.181052685E0,7.672911270E0
6.118393696E0,-4.453215122E0,3.610456228E0,5.525817394E0,7.962485603E0
6.123429105E0,-4.529829502E0,3.112462282E0,6.014234543E0,8.147256834E0
6.128464513E0,-4.577713490E0,2.422932148E0,6.502651691E0,8.313274927E0
6.133499920E0,-4.692635536E0,1.455674648E0,6.914454460E0,8.482304960E0
6.138504811E0,-4.778826714E0,6.799532771E-1,7.278373241E0,8.733512367E0
6.143540220E0,-5.056553841E0,9.576806426E-2,7.642292023E0,9.164198581E0
6.148575628E0,-5.334281445E0,-1.436520964E-1,7.757213593E0,9.415389380E0
6.153611035E0,-5.535394192E0,-2.489969730E-1,7.881711960E0,9.634519800E0
6.158646444E0,-5.659893036E0,-1.532289088E-1,8.092401505E0,9.876478643E0
6.163651335E0,-5.908889771E0,-1.723825186E-1,8.025363922E0,9.967505211E0
6.168686743E0,-6.196194172E0,9.576806799E-3,7.929595947E0,1.006336951E1
6.173722150E0,-6.301538944E0,3.639186621E-1,7.766790390E0,1.000823975E1
6.178757559E0,-6.234501362E0,6.320692301E-1,7.776367188E0,9.987011834E0
6.183792967E0,-5.947196960E0,7.661445141E-1,8.006210327E0,1.000277626E1
6.188797857E0,-5.391742229E0,8.044517636E-1,7.967903137E0,9.654299939E0
6.193833265E0,-5.037400246E0,7.469909191E-1,7.862558365E0,9.367668905E0
6.198868674E0,-4.960785866E0,6.799532771E-1,7.402871609E0,8.937238999E0
6.203904082E0,-4.960785866E0,6.320692301E-1,6.904877663E0,8.525622760E0
6.208939489E0,-4.874594688E0,5.267243981E-1,6.378153324E0,8.044871148E0
6.213944380E0,-4.884171486E0,3.734954596E-1,5.755661011E0,7.557927205E0
6.218979789E0,-4.989516258E0,1.244984865E-1,5.420472622E0,7.368330599E0
6.224015196E0,-5.133168221E0,0.000000000E0,5.094861031E0,7.232359567E0
6.229050604E0,-5.276820660E0,-1.149216816E-1,4.865017891E0,7.178192136E0
6.234055495E0,-5.343858242E0,-2.585737705E-1,4.702212334E0,7.122814201E0
6.239090904E0,-5.114014626E0,-2.011129409E-1,4.855441093E0,7.054707663E0
6.244126311E0,-4.769249916E0,-2.011129409E-1,4.932055473E0,6.863771731E0
6.249161719E0,-4.194641590E0,-1.340752989E-1,4.807557106E0,6.381661193E0
6.254197128E0,-3.706224203E0,-2.873042040E-2,4.472368717E0,5.808528663E0
6.259202018E0,-3.141192675E0,-3.830722719E-2,4.386177540E0,5.395100766E0
6.264237426E0,-2.729389906E0,-1.532289088E-1,4.261679173E0,5.063097641E0
6.269272834E0,-2.126051188E0,-4.022258818E-1,4.194641590E0,4.719840822E0
6.274308243E0,-1.436521053E0,-6.320692301E-1,4.185064793E0,4.469661236E0
6.279313133E0,-8.140285611E-1,-9.576807022E-1,4.127603531E0,4.314731247E0
6.284348541E0,-5.075707436E-1,-1.264138460E0,3.744531393E0,3.984619111E0
6.289383949E0,-4.405331016E-1,-1.388636947E0,3.361459255E0,3.663576164E0
6.294419358E0,-5.458779931E-1,-1.589749932E0,3.208230257E0,3.621881971E0
6.299424248E0,-7.182605267E-1,-1.608903527E0,3.150769472E0,3.609960805E0
6.304459656E0,-7.374141216E-1,-1.474828243E0,3.141192675E0,3.547673795E0
6.309495064E0,-9.672574997E-1,-1.197100878E0,3.074155092E0,3.437887013E0
6.314530472E0,-1.244984865E0,-9.672574997E-1,3.131615877E0,3.506079347E0
6.319535363E0,-1.321599364E0,-8.331822157E-1,3.112462282E0,3.482562123E0
6.324570771E0,-1.331176162E0,-7.182605267E-1,3.198653460E0,3.538263997E0
6.329606179E0,-1.063025594E0,-7.852981687E-1,3.294421434E0,3.549637899E0
6.334641587E0,-8.810662031E-1,-8.810662031E-1,3.447650433E0,3.665903547E0
6.339646478E0,-8.140285611E-1,-8.906430602E-1,3.639186621E0,3.834001411E0
6.344681886E0,-6.991068721E-1,-9.959878922E-1,3.926490784E0,4.110726478E0
6.349717293E0,-4.596867263E-1,-1.110909581E0,4.252102375E0,4.418801488E0
6.354752702E0,-4.692635238E-1,-1.321599364E0,4.405331135E0,4.623178078E0
6.359757593E0,-7.661445141E-1,-1.312022567E0,4.405331135E0,4.659970283E0
6.364793001E0,-1.015141487E0,-1.283292055E0,4.185064793E0,4.493564071E0
6.369828408E0,-1.206677675E0,-1.187524080E0,3.821146011E0,4.179406811E0
6.374863817E0,-1.465251446E0,-9.959878922E-1,3.428496838E0,3.859215496E0
6.379868708E0,-1.695094824E0,-8.236053586E-1,3.064578056E0,3.597681324E0
6.384904115E0,-1.723825216E0,-5.554547906E-1,2.595314741E0,3.164768871E0
6.389939523E0,-1.589749932E0,-5.075707436E-1,2.336740971E0,2.871461522E0
6.394974932E0,-1.388636947E0,-4.884171486E-1,2.432508945E0,2.843231199E0
6.399979823E0,-8.044517636E-1,-4.213795066E-1,2.767697096E0,2.912876678E0
6.405015230E0,2.106897533E-1,-3.543418646E-1,3.208230257E0,3.234608123E0
6.410050638E0,1.254561663E0,-2.394201756E-1,3.620033026E0,3.838734960E0
6.415086047E0,2.930502892E0,-3.830722570E-1,4.089296341E0,5.045486707E0
6.420121455E0,4.405331135E0,-6.320692301E-1,3.974374771E0,5.966750266E0
6.425126345E0,4.893748283E0,-8.523358107E-1,3.016694069E0,5.811685788E0
6.430161753E0,5.066130638E0,-8.331822157E-1,1.618480325E0,5.383247236E0
6.435197162E0,5.037400246E0,-8.810662031E-1,4.979939461E-1,5.138061586E0
6.440232569E0,3.964797974E0,-1.158793569E0,-6.991068721E-1,4.189412360E0
6.445267977E0,2.557007313E0,-1.599326730E0,-1.647210717E0,3.436485928E0
6.450272868E0,1.723825216E0,-2.461239338E0,-1.522712231E0,3.368668133E0
6.455308277E0,-1.723825186E-1,-1.407790542E0,-7.086837292E-1,1.585503885E0
6.460343684E0,-1.312022567E0,-1.379060149E0,-5.841852427E-1,1.991100828E0
6.465379092E0,-9.576806799E-3,-1.723825186E-1,-5.746084079E-2,1.819593256E-1
6.470383983E0,-8.619125932E-2,-2.489969730E-1,-8.619125932E-2,2.772315980E-1
6.475419391E0,-7.661445439E-2,-2.011129409E-1,-2.873042040E-2,2.171212258E-1
6.480454799E0,-1.915361360E-2,-2.011129409E-1,-2.873042040E-2,2.040556615E-1
6.485490207E0,-7.661445439E-2,-2.873041928E-1,-1.915361360E-2,2.979602905E-1
6.490525616E0,-4.788403213E-2,-2.011129409E-1,-4.788403213E-2,2.122078605E-1
6.495530506E0,-9.576806426E-2,-2.394201756E-1,-5.746084079E-2,2.641879839E-1
6.500565914E0,0.000000000E0,-2.585737705E-1,-9.576806799E-3,2.587510580E-1
6.505601322E0,-6.703764945E-2,-2.202665508E-1,9.576806799E-3,2.304411315E-1
6.510636731E0,-3.830722719E-2,-2.298433632E-1,-2.873042040E-2,2.347783046E-1
6.515641621E0,-5.746084079E-2,-2.202665508E-1,1.915361360E-2,2.284424709E-1
6.520677029E0,-1.915361360E-2,-2.394201756E-1,-4.788403213E-2,2.449117431E-1
6.525712437E0,-6.703764945E-2,-1.915361285E-1,4.788403213E-2,2.085018357E-1
6.530747845E0,-6.703764945E-2,-2.394201756E-1,-5.746084079E-2,2.551819256E-1
6.535752736E0,-7.661445439E-2,-2.298433632E-1,9.576806799E-3,2.424653819E-1
6.540788144E0,-3.830722719E-2,-1.532289088E-1,2.873042040E-2,1.605365354E-1
6.545823552E0,-6.703764945E-2,-2.873041928E-1,6.703764945E-2,3.025422154E-1
6.550858960E0,-1.053448766E-1,-1.723825186E-1,2.873042040E-2,2.040556611E-1
6.555894368E0,-3.830722719E-2,-2.681505978E-1,2.873042040E-2,2.723924078E-1
6.560899259E0,1.915361360E-2,-2.394201756E-1,3.830722719E-2,2.432207331E-1
6.565934666E0,-6.703764945E-2,-2.489969730E-1,7.661445439E-2,2.690043004E-1
6.570970075E0,-5.746084079E-2,-2.202665508E-1,6.703764945E-2,2.373039150E-1
6.576005483E0,-2.873042040E-2,-2.298433632E-1,5.746084079E-2,2.386527957E-1
6.581010374E0,-1.915361360E-2,-2.298433632E-1,3.830722719E-2,2.337996496E-1
6.586045781E0,-9.576806426E-2,-2.681505978E-1,1.340752989E-1,3.147259935E-1
6.591081190E0,-1.915361360E-2,-2.202665508E-1,1.053448766E-1,2.449117338E-1
6.596116598E0,-6.703764945E-2,-1.915361285E-1,1.244984865E-1,2.380756353E-1
6.601152006E0,-3.830722719E-2,-2.202665508E-1,1.628057212E-1,2.765691593E-1
6.606156896E0,0.000000000E0,-2.489969730E-1,1.149216816E-1,2.742380088E-1
6.611192305E0,9.576806799E-3,-2.202665508E-1,9.576806426E-2,2.403759363E-1
6.616227713E0,-4.788403213E-2,-3.064578176E-1,1.436520964E-1,3.418262706E-1
6.621263121E0,0.000000000E0,-2.202665508E-1,1.340752989E-1,2.578634118E-1
6.626298529E0,-9.576806799E-3,-2.681505978E-1,2.011129409E-1,3.353250264E-1
6.631303420E0,9.576806799E-3,-2.011129409E-1,1.628057212E-1,2.589282392E-1
6.636338828E0,-3.830722719E-2,-2.777273953E-1,8.619125932E-2,2.933068068E-1
6.641374235E0,-3.830722719E-2,-2.777273953E-1,1.532289088E-1,3.194981193E-1
6.646409644E0,-4.788403213E-2,-2.202665508E-1,1.436520964E-1,2.672941427E-1
6.651414535E0,-4.788403213E-2,-2.202665508E-1,1.628057212E-1,2.780574343E-1
6.656449942E0,-9.576806799E-3,-1.723825186E-1,1.149216816E-1,2.073992306E-1
6.661485350E0,-7.661445439E-2,-2.106897533E-1,1.436520964E-1,2.662627867E-1
6.666520759E0,-5.746084079E-2,-2.298433632E-1,1.436520964E-1,2.770661376E-1
6.671525650E0,0.000000000E0,-2.489969730E-1,1.532289088E-1,2.923672195E-1
6.676561057E0,-1.915361360E-2,-2.873041928E-1,1.723825186E-1,3.355984101E-1
6.681596465E0,-9.576806799E-3,-2.298433632E-1,1.532289088E-1,2.764033019E-1
6.686631874E0,-3.830722719E-2,-2.777273953E-1,1.915361285E-1,3.395379777E-1
6.691667281E0,-5.746084079E-2,-2.777273953E-1,1.723825186E-1,3.318885160E-1
6.696672172E0,-9.576806426E-2,-2.298433632E-1,1.723825186E-1,3.028452187E-1
6.701707580E0,-4.788403213E-2,-2.777273953E-1,1.723825186E-1,3.303651304E-1
6.706742989E0,-1.053448766E-1,-2.394201756E-1,1.819593310E-1,3.186357821E-1
6.711778396E0,-3.830722719E-2,-2.202665508E-1,2.011129409E-1,3.007178280E-1
6.716813805E0,-9.576806799E-3,-2.489969730E-1,1.340752989E-1,2.829618236E-1
6.721818695E0,-9.576806799E-3,-2.585737705E-1,1.819593310E-1,3.163246879E-1
6.726854103E0,-4.788403213E-2,-2.106897533E-1,1.915361285E-1,2.887371490E-1
6.731889511E0,9.576806799E-3,-2.011129409E-1,2.011129409E-1,2.845778369E-1
6.736924920E0,-3.830722719E-2,-1.819593310E-1,1.244984865E-1,2.237778250E-1
6.741929810E0,-4.788403213E-2,-1.915361285E-1,2.585737705E-1,3.253296234E-1
6.746965218E0,-5.746084079E-2,-2.681505978E-1,2.394201756E-1,3.640446563E-1
6.752000626E0,-2.873042040E-2,-2.106897533E-1,2.873041928E-1,3.574343414E-1
6.757036035E0,0.000000000E0,-2.202665508E-1,2.777273953E-1,3.544712393E-1
6.762071443E0,-2.873042040E-2,-1.628057212E-1,3.064578176E-1,3.482061657E-1
6.767076333E0,-1.436520964E-1,-2.298433632E-1,3.543418646E-1,4.461188781E-1
6.772111741E0,-6.703764945E-2,-2.106897533E-1,3.447650373E-1,4.095694685E-1
6.777147150E0,-5.746084079E-2,-2.298433632E-1,3.160346150E-1,3.949779712E-1
6.782182557E0,-2.873042040E-2,-2.106897533E-1,3.064578176E-1,3.730040256E-1
6.787217965E0,-2.873042040E-2,-1.915361285E-1,3.734954596E-1,4.207260200E-1
6.792253374E0,-4.788403213E-2,-2.873041928E-1,2.968810201E-1,4.159025364E-1
6.797258265E0,-3.830722719E-2,-2.106897533E-1,3.447650373E-1,4.058577913E-1
6.802293672E0,-2.873042040E-2,-2.489969730E-1,4.118026793E-1,4.820854450E-1
6.807329080E0,-9.576806799E-3,-2.298433632E-1,3.256114423E-1,3.986759313E-1
6.812364489E0,-8.619125932E-2,-2.681505978E-1,3.447650373E-1,4.451927754E-1
6.817369379E0,0.000000000E0,-2.106897533E-1,2.585737705E-1,3.335424515E-1
6.822404787E0,-3.830722719E-2,-2.011129409E-1,3.160346150E-1,3.765524353E-1
6.827440195E0,-3.830722719E-2,-1.819593310E-1,2.681505978E-1,3.263148555E-1
6.832475604E0,-1.915361360E-2,-2.298433632E-1,2.681505978E-1,3.536941837E-1
6.837511011E0,1.915361360E-2,-1.915361285E-1,2.585737705E-1,3.223559279E-1
6.842515902E0,-1.915361360E-2,-2.106897533E-1,2.873041928E-1,3.567922817E-1
6.847551310E0,-8.619125932E-2,-2.202665508E-1,2.011129409E-1,3.104717404E-1
6.852586719E0,-5.746084079E-2,-2.585737705E-1,2.202665508E-1,3.444989063E-1
6.857622126E0,-2.873042040E-2,-2.298433632E-1,2.489969730E-1,3.400777870E-1
6.862657534E0,0.000000000E0,-2.106897533E-1,1.436520964E-1,2.550021509E-1
6.867662425E0,-6.703764945E-2,-1.915361285E-1,3.064578176E-1,3.675547972E-1
6.872697833E0,9.576806799E-3,-2.394201756E-1,3.639186621E-1,4.357184048E-1
6.877733241E0,0.000000000E0,-2.106897533E-1,2.777273953E-1,3.486010302E-1
6.882768649E0,1.915361360E-2,-2.585737705E-1,2.585737705E-1,3.661798063E-1
6.887804058E0,2.873042040E-2,-2.681505978E-1,3.064578176E-1,4.082236815E-1
6.892808948E0,9.576806799E-3,-2.011129409E-1,2.585737705E-1,3.277171418E-1
6.897844356E0,2.873042040E-2,-2.202665508E-1,3.447650373E-1,4.101289083E-1
6.902879764E0,-3.830722719E-2,-2.106897533E-1,3.256114423E-1,3.897183947E-1
6.907915172E0,1.915361360E-2,-1.915361285E-1,3.639186621E-1,4.116913189E-1
6.912950580E0,-1.915361360E-2,-2.681505978E-1,3.160346150E-1,4.149090044E-1
6.917955471E0,-2.873042040E-2,-2.106897533E-1,4.118026793E-1,4.634620328E-1
6.922990879E0,3.830722719E-2,-2.298433632E-1,3.351882398E-1,4.082236781E-1
6.928026287E0,1.915361360E-2,-2.106897533E-1,3.064578176E-1,3.723888116E-1
6.933061695E0,1.915361360E-2,-2.106897533E-1,2.585737705E-1,3.340919452E-1
6.938066586E0,0.000000000E0,-3.160346150E-1,2.681505978E-1,4.144666706E-1
6.943101993E0,2.873042040E-2,-2.489969730E-1,3.543418646E-1,4.340312047E-1
6.948137402E0,-2.873042040E-2,-2.202665508E-1,3.543418646E-1,4.182116061E-1
6.953172810E0,1.915361360E-2,-2.202665508E-1,3.064578176E-1,3.778896773E-1
6.958208219E0,3.830722719E-2,-2.202665508E-1,3.160346150E-1,3.871210081E-1
6.963213108E0,6.703764945E-2,-2.489969730E-1,3.160346150E-1,4.078865246E-1
6.968248517E0,-9.576806799E-3,-2.106897533E-1,3.447650373E-1,4.041593972E-1
6.973283925E0,0.000000000E0,-2.585737705E-1,4.118026793E-1,4.862528576E-1
6.978319334E0,5.746084079E-2,-2.489969730E-1,3.830722570E-1,4.604840876E-1
6.983293706E0,6.703764945E-2,-2.011129409E-1,3.543418646E-1,4.129147835E-1
6.988329114E0,2.873042040E-2,-2.202665508E-1,4.501099288E-1,5.019379827E-1
6.993364523E0,8.619125932E-2,-2.489969730E-1,4.213795066E-1,4.969799939E-1
6.998399930E0,0.000000000E0,-2.394201756E-1,4.692635238E-1,5.268114229E-1
7.003404821E0,-2.873042040E-2,-2.202665508E-1,4.788403511E-1,5.278549728E-1
7.008440229E0,2.873042040E-2,-2.011129409E-1,5.171475410E-1,5.556198622E-1
7.013475638E0,5.746084079E-2,-3.064578176E-1,5.267243981E-1,6.120920958E-1
7.018511045E0,-9.576806799E-3,-2.011129409E-1,4.884171486E-1,5.282891644E-1
7.023546453E0,6.703764945E-2,-2.394201756E-1,5.075707436E-1,5.651938841E-1
7.028551344E0,4.788403213E-2,-2.968810201E-1,5.650315881E-1,6.400718055E-1
7.033586752E0,-3.830722719E-2,-2.489969730E-1,6.320692301E-1,6.804251964E-1
7.038622160E0,0.000000000E0,-2.873041928E-1,6.033388376E-1,6.682525362E-1
7.043657568E0,-9.576806799E-3,-2.298433632E-1,5.937620401E-1,6.367676555E-1
7.048662459E0,0.000000000E0,-2.585737705E-1,6.224924326E-1,6.740602521E-1
7.053697867E0,2.873042040E-2,-2.394201756E-1,6.416460276E-1,6.854612186E-1
7.058733275E0,0.000000000E0,-2.394201756E-1,6.129156351E-1,6.580179300E-1
7.063768683E0,-5.746084079E-2,-2.489969730E-1,6.416460276E-1,6.906597321E-1
7.068804091E0,-1.915361360E-2,-2.106897533E-1,6.224924326E-1,6.574601598E-1
7.073808982E0,3.830722719E-2,-2.394201756E-1,5.937620401E-1,6.413601363E-1
7.078844390E0,8.619125932E-2,-2.489969730E-1,6.224924326E-1,6.759624652E-1
7.083879798E0,3.830722719E-2,-2.777273953E-1,6.512228847E-1,7.090071898E-1
7.088915206E0,1.915361360E-2,-2.489969730E-1,6.512228847E-1,6.974651239E-1
7.093950614E0,-1.915361360E-2,-2.489969730E-1,6.224924326E-1,6.707184075E-1
7.098986022E0,3.830722719E-2,-2.298433632E-1,6.033388376E-1,6.467713415E-1
7.103990913E0,9.576806799E-3,-2.489969730E-1,6.512228847E-1,6.972678490E-1
7.109026321E0,4.788403213E-2,-1.915361285E-1,6.895300746E-1,7.172382399E-1
7.114061729E0,3.830722719E-2,-2.202665508E-1,7.374141216E-1,7.705610838E-1
7.119097137E0,1.915361360E-2,-2.106897533E-1,6.703764796E-1,7.029663274E-1
7.124132545E0,-1.915361360E-2,-2.681505978E-1,6.991068721E-1,7.490140337E-1
7.129167953E0,-4.788403213E-2,-2.011129409E-1,6.895300746E-1,7.198548599E-1
7.134172844E0,9.576806799E-3,-2.394201756E-1,7.182605267E-1,7.571736392E-1
7.139208252E0,-1.915361360E-2,-2.106897533E-1,7.278373241E-1,7.579605554E-1
7.144243660E0,-5.746084079E-2,-2.298433632E-1,7.565677166E-1,7.927953264E-1
7.149279068E0,-9.576806426E-2,-2.202665508E-1,7.374141216E-1,7.755439783E-1
7.154275569E0,-9.576806799E-3,-2.106897533E-1,7.948749661E-1,8.223795347E-1
7.159310974E0,-1.915361360E-2,-3.064578176E-1,7.374141216E-1,7.987883585E-1
7.164346378E0,-3.830722719E-2,-2.394201756E-1,8.140285611E-1,8.493715103E-1
7.169381783E0,2.873042040E-2,-2.489969730E-1,8.331822157E-1,8.700675458E-1
7.174386670E0,-1.915361360E-2,-2.585737705E-1,7.852981687E-1,8.269948424E-1
7.179422074E0,-1.053448766E-1,-3.160346150E-1,8.523358107E-1,9.151239015E-1
7.184457478E0,-7.661445439E-2,-2.873041928E-1,9.193734527E-1,9.662613618E-1
7.189492883E0,-6.703764945E-2,-2.681505978E-1,9.097966552E-1,9.508568469E-1
7.194528287E0,-9.576806799E-3,-2.873041928E-1,9.864110947E-1,1.027444530E0
7.199533174E0,-4.788403213E-2,-2.681505978E-1,1.053448796E0,1.088095579E0
7.204568578E0,-1.053448766E-1,-2.202665508E-1,1.101332784E0,1.128073046E0
7.209603983E0,-9.576806426E-2,-2.777273953E-1,1.331176162E0,1.363207248E0
7.214639387E0,1.915361285E-1,-1.053448766E-1,1.896207690E0,1.908765893E0
7.219674793E0,-1.003649330E1,2.927629852E1,-7.821378326E1,8.411437895E1
7.224679679E0,2.018790817E1,4.710831451E1,4.232948780E0,5.142628499E1
7.229715084E0,7.826166534E1,3.715801001E0,7.837658691E1,1.108223119E2
7.234750488E0,-4.662947083E1,-3.859453201E0,7.837658691E1,9.128029527E1
7.239785893E0,-7.837658691E1,-2.881661224E1,7.837658691E1,1.145258743E2
7.244821297E0,-3.791457748E1,-4.360320282E1,7.837658691E1,9.737373290E1
7.249826184E0,-3.926490843E-1,-2.735136032E1,3.824976730E1,4.702441689E1
7.254861588E0,3.782838583E0,-9.844957352E0,4.031835556E0,1.129109166E1
7.259896993E0,-7.278373241E-1,-3.131615877E0,-3.543418646E-1,3.234551488E0
7.264932397E0,-4.692635238E-1,-2.882618904E0,-3.926490843E-1,2.946841242E0
7.269967801E0,-3.830722570E-1,-2.911349297E0,-5.171475410E-1,2.981633891E0
7.275003206E0,-2.681505978E-1,-2.949656487E0,-1.091755986E0,3.156629415E0
7.280008092E0,-2.968810201E-1,-2.911349297E0,-6.607996821E-1,3.000124879E0
7.285043498E0,-4.022258818E-1,-2.968810081E0,-8.427590132E-1,3.112211708E0
7.290078902E0,-4.309563041E-1,-2.940079689E0,-8.714894056E-1,3.096657181E0
7.295114307E0,-4.788403511E-1,-2.911349297E0,-6.416460276E-1,3.019429157E0
7.300149711E0,-4.213795066E-1,-2.959233284E0,-3.351882398E-1,3.007818724E0
7.305154598E0,-4.692635238E-1,-2.920926094E0,-4.118026793E-1,2.986904576E0
7.310190002E0,-4.788403511E-1,-2.920926094E0,-2.777273953E-1,2.972916049E0
7.315225407E0,-5.171475410E-1,-2.873042107E0,-2.873041928E-1,2.933318296E0
7.320260811E0,-4.309563041E-1,-2.911349297E0,-2.968810201E-1,2.958008858E0
7.325296215E0,-4.788403511E-1,-2.949656487E0,-3.351882398E-1,3.007010580E0
7.330331620E0,-4.118026793E-1,-2.892195702E0,-3.064578176E-1,2.937395754E0
7.335336507E0,-4.213795066E-1,-2.834734917E0,-3.447650373E-1,2.886545629E0
7.340371911E0,-4.788403511E-1,-2.834734917E0,-3.447650373E-1,2.895491851E0
7.345376799E0,-4.405331016E-1,-2.786850691E0,-3.734954596E-1,2.846068349E0
7.350381686E0,-3.830722570E-1,-2.873042107E0,-2.106897533E-1,2.906115186E0
7.355417090E0,-3.734954596E-1,-2.796427488E0,-2.968810201E-1,2.836836953E0
7.360452494E0,-3.830722570E-1,-2.796427488E0,-1.628057212E-1,2.827234825E0
7.365487899E0,-4.788403511E-1,-2.758120298E0,-2.585737705E-1,2.811294374E0
7.370523303E0,-4.309563041E-1,-2.806004286E0,-1.244984865E-1,2.841633907E0
7.375558708E0,-4.501099288E-1,-2.796427488E0,-1.819593310E-1,2.838259122E0
7.380563594E0,-4.118026793E-1,-2.796427488E0,-1.244984865E-1,2.829326425E0
7.385598999E0,-4.501099288E-1,-2.806004286E0,-5.746084079E-2,2.842456816E0
7.390634403E0,-5.075707436E-1,-2.786850691E0,-1.053448766E-1,2.834653837E0
7.395669808E0,-4.118026793E-1,-2.729389906E0,-1.244984865E-1,2.763087146E0
7.400705212E0,-4.501099288E-1,-2.825158119E0,-9.576806426E-2,2.862392158E0
7.405740616E0,-4.501099288E-1,-2.767697096E0,-1.053448766E-1,2.806037011E0
7.410745504E0,-4.309563041E-1,-2.719813108E0,-6.703764945E-2,2.754559988E0
7.415780909E0,-5.458779931E-1,-2.748543501E0,-9.576806426E-2,2.803862636E0
7.420816313E0,-4.405331016E-1,-2.767697096E0,-3.830722719E-2,2.802799328E0
7.425851717E0,-4.692635238E-1,-2.719813108E0,-1.053448766E-1,2.762008172E0
7.430887122E0,-4.692635238E-1,-2.691082716E0,-2.873042040E-2,2.731841847E0
7.435892009E0,-5.075707436E-1,-2.738966703E0,-5.746084079E-2,2.786192458E0
7.440927413E0,-4.596867263E-1,-2.710236311E0,-1.436520964E-1,2.752694802E0
7.445962817E0,-4.788403511E-1,-2.719813108E0,-4.788403213E-2,2.762057984E0
7.450998222E0,-5.363011956E-1,-2.729389906E0,-5.746084079E-2,2.782173607E0
7.456033626E0,-4.979939461E-1,-2.652775526E0,-1.053448766E-1,2.701168915E0
7.461038513E0,-5.650315881E-1,-2.748543501E0,-9.576806426E-2,2.807654465E0
7.466073917E0,-5.841852427E-1,-2.614468336E0,-4.788403213E-2,2.679367455E0
7.471109323E0,-6.033388376E-1,-2.738966703E0,-4.788403213E-2,2.805039970E0
7.476144727E0,-5.363011956E-1,-2.710236311E0,-4.788403213E-2,2.763203343E0
7.481180131E0,-5.746083856E-1,-2.719813108E0,-7.661445439E-2,2.780904154E0
7.486215536E0,-6.129156351E-1,-2.662352324E0,-9.576806426E-2,2.733670974E0
7.491220423E0,-5.937620401E-1,-2.691082716E0,-1.244984865E-1,2.758619114E0
7.496255827E0,-6.512228847E-1,-2.671929121E0,-1.053448766E-1,2.752161699E0
7.501291231E0,-6.224924326E-1,-2.643198729E0,-5.746084079E-2,2.716118204E0
7.506326636E0,-6.416460276E-1,-2.681505919E0,-7.661445439E-2,2.758270000E0
7.511362040E0,-6.607996821E-1,-2.662352324E0,-1.053448766E-1,2.745154578E0
7.516366927E0,-6.320692301E-1,-2.624045134E0,-8.619125932E-2,2.700472793E0
7.521402331E0,-6.512228847E-1,-2.604891539E0,-7.661445439E-2,2.686153560E0
7.526437736E0,-6.895300746E-1,-2.595314741E0,-6.703764945E-2,2.686187703E0
7.531473140E0,-7.565677166E-1,-2.595314741E0,-1.149216816E-1,2.705782753E0
7.536508546E0,-7.278373241E-1,-2.604891539E0,-4.788403213E-2,2.705087795E0
7.541513432E0,-6.895300746E-1,-2.614468336E0,-1.149216816E-1,2.706308075E0
7.546548837E0,-7.374141216E-1,-2.576161146E0,-9.576806426E-2,2.681334996E0
7.551584241E0,-7.086837292E-1,-2.585737944E0,-1.723825186E-1,2.686631548E0
7.556619646E0,-7.565677166E-1,-2.509123325E0,-1.149216816E-1,2.623223506E0
7.561655050E0,-7.948749661E-1,-2.145204782E0,-4.979939461E-1,2.341308980E0
7.566690454E0,-8.427590132E-1,-1.819593310E0,-6.224924326E-1,2.099680785E0
7.571695341E0,-9.385270476E-1,-1.733402014E0,-5.554547906E-1,2.047936909E0
7.576730746E0,-1.446097851E0,-5.458779931E-1,-2.202665508E-1,1.561313271E0
7.581766150E0,-1.704671621E0,6.320692301E-1,-2.097320795E0,2.775638911E0
7.586801554E0,-8.073247910E0,1.099417400E1,6.033388376E-1,1.365332236E1
7.591836959E0,-1.699883270E1,3.048297691E1,4.050989151E0,3.513662915E1
7.596841847E0,-1.877054214E1,5.022077560E1,2.279279947E0,5.366241396E1
7.601877251E0,-1.076433086E1,6.287173843E1,2.451662540E0,6.383366637E1
7.606912655E0,-3.026270866E0,6.555324554E1,5.726930618E0,6.587248326E1
7.611948060E0,-2.442085743E0,5.748957062E1,8.226476669E0,5.812649509E1
7.616983464E0,-4.797980309E0,4.019385910E1,8.370129585E0,4.133552944E1
7.621988351E0,-4.395754337E0,2.046563530E1,7.201758862E0,2.213662610E1
7.627023755E0,-2.432508945E0,5.305551052E0,4.759673119E0,7.531298688E0
7.632059160E0,-5.458779931E-1,-4.003105164E0,2.470816135E0,4.735796249E0
7.637094564E0,4.213795066E-1,-8.839392662E0,8.427590132E-1,8.889469392E0
7.642129969E0,6.129156351E-1,-1.054406452E1,1.053448766E-1,1.056238892E1
7.647134855E0,7.757213712E-1,-1.086967564E1,-6.703764945E-2,1.089752661E1
7.652170260E0,8.140285611E-1,-1.084094524E1,-1.340752989E-1,1.087229104E1
7.657205665E0,7.182605267E-1,-1.081221485E1,-1.915361285E-1,1.083773843E1
7.662241070E0,8.427590132E-1,-1.081221485E1,-2.202665508E-1,1.084724620E1
7.667276474E0,7.948749661E-1,-1.075475407E1,-2.298433632E-1,1.078653741E1
7.672281361E0,7.948749661E-1,-1.069729328E1,-2.106897533E-1,1.072885362E1
7.677316765E0,8.140285611E-1,-1.061110210E1,-2.777273953E-1,1.064590357E1
7.682352169E0,8.236053586E-1,-1.061110210E1,-3.734954596E-1,1.064956865E1
7.687387574E0,8.331822157E-1,-1.058237171E1,-2.681505978E-1,1.061850688E1
7.692392461E0,8.044517636E-1,-1.063025570E1,-3.256114423E-1,1.066562242E1
7.697427865E0,7.374141216E-1,-1.063025570E1,-5.746083856E-1,1.067128346E1
7.702463269E0,5.458779931E-1,-1.063983250E1,-1.177947283E0,1.071874891E1
7.707498674E0,4.213795066E-1,-1.057279491E1,-2.097320795E0,1.078704350E1
7.712534078E0,1.302445769E0,-1.194227791E1,-1.678814316E1,2.064354905E1
7.717538965E0,9.519346237E0,-1.929726601E1,-4.926309586E1,5.375737197E1
7.722574370E0,2.016875458E1,-2.819411850E1,-7.821378326E1,8.555163863E1
7.727609775E0,2.102109146E1,-3.363374710E1,-7.821378326E1,8.769555931E1
7.732645179E0,1.426944256E1,-3.094266319E1,-7.816589355E1,8.526999655E1
7.737680584E0,5.315127850E0,-2.221819115E1,-5.104438019E1,5.592340611E1
7.742715988E0,6.895300746E-1,-1.382890892E1,-2.333867836E1,2.713683993E1
7.747720875E0,-1.244984865E-1,-8.542511940E0,-6.406883717E0,1.067886553E1
7.752756279E0,1.723825186E-1,-6.646304131E0,-9.193734527E-1,6.711804666E0
7.757791684E0,4.501099288E-1,-6.387730122E0,-5.746084079E-2,6.403826731E0
7.762827088E0,9.002198577E-1,-6.263231754E0,4.788403213E-2,6.327776915E0
7.767862492E0,1.264138460E0,-6.052541733E0,-6.703764945E-2,6.183510453E0
7.772867379E0,3.610456228E0,-8.485051155E0,1.149216771E0,9.292587716E0
7.777902784E0,5.056553841E0,-1.109951878E1,7.747636795E0,1.444970345E1
7.782938189E0,5.066130638E0,-1.019929886E1,1.467166805E1,1.857280863E1
7.787973593E0,2.269703150E0,-6.129156113E0,1.469082165E1,1.607912770E1
7.793008998E0,-1.426944256E0,-3.227383852E0,1.008437729E1,1.068395253E1
7.798013885E0,-2.279279947E0,-2.509123325E0,7.192182064E0,7.950993635E0
7.803049289E0,-2.087743998E0,-2.863465309E0,6.933608055E0,7.786721341E0
7.808084693E0,-2.087743998E0,-3.849876404E0,5.822698593E0,7.285879647E0
7.813120098E0,-1.551442742E0,-4.367023945E0,2.777273893E0,5.402880990E0
7.818155502E0,1.340752989E-1,-4.472368717E0,-1.168370485E0,4.624407824E0
7.823160389E0,2.413355350E0,-4.520252705E0,-5.698200226E0,7.663318757E0
7.828195793E0,4.271255970E0,-5.142745018E0,-1.072602367E1,1.263879099E1
7.833231198E0,6.014234543E0,-5.822698593E0,-2.197877121E1,2.351895448E1
7.838266602E0,9.643844604E0,-6.885724068E0,-4.124730682E1,4.291569940E1
7.843302007E0,9.959878922E0,-6.397306919E0,-5.340027618E1,5.469656498E1
7.848306894E0,3.725377798E0,-5.066130638E0,-5.132210922E1,5.170592823E1
7.853342299E0,-3.476380825E0,-3.332728863E0,-3.513730240E1,3.546579091E1
7.858377703E0,-2.901772499E0,-2.758120298E0,-1.830127716E1,1.873404006E1
7.863413108E0,-1.034295082E0,-2.451662540E0,-8.408436775E0,8.819423141E0
7.868448512E0,-5.554547906E-1,-2.279279947E0,-4.970362663E0,5.496194329E0
7.873483916E0,-6.224924326E-1,-2.442085743E0,-3.773261786E0,4.537486541E0
7.878488803E0,-6.416460276E-1,-2.681505919E0,-3.572149038E0,4.512475193E0
7.883524207E0,-6.799532771E-1,-3.265691042E0,-4.252102375E0,5.404391645E0
7.888559612E0,-4.884171486E-1,-3.878606796E0,-5.439626217E0,6.698632351E0
7.893595016E0,9.576806799E-3,-4.414907932E0,-7.345410824E0,8.570097079E0
7.898599903E0,5.650315881E-1,-4.730942726E0,-1.038125896E1,1.142241732E1
7.903635307E0,1.331176162E0,-4.836287498E0,-1.338837624E1,1.429721389E1
7.908670713E0,1.647210717E0,-4.328716755E0,-1.445140171E1,1.517544409E1
7.913706117E0,6.607996821E-1,-2.461239338E0,-1.291911221E1,1.316806043E1
7.918741522E0,-6.129156351E-1,-7.374141216E-1,-9.816226959E0,9.862948691E0
7.923776926E0,-6.703764796E-1,-4.022258818E-1,-6.885724068E0,6.929962931E0
7.928781813E0,-3.160346150E-1,-6.224924326E-1,-4.817133904E0,4.867458654E0
7.933817217E0,1.244984865E-1,-1.063025594E0,-3.792415380E0,3.940550432E0
7.938852622E0,4.979939461E-1,-1.522712231E0,-3.438073635E0,3.793020014E0
7.943888026E0,7.182605267E-1,-1.790862918E0,-3.936067581E0,4.383573449E0
7.948923430E0,9.576807022E-1,-1.963245392E0,-5.228936672E0,5.666856582E0
7.953928317E0,1.043871999E0,-1.886630893E0,-7.364564419E0,7.673711876E0
7.958963722E0,1.034295082E0,-1.580173135E0,-9.117119789E0,9.310670583E0
7.963999126E0,-1.838746905E0,-9.193734527E-1,-9.050082207E0,9.280637137E0
7.969034530E0,4.213795185E0,-1.848323703E0,-1.541865921E1,1.609060043E1
7.974069936E0,5.142745018E0,-3.744531393E0,-2.781104660E1,2.852934725E1
7.979074823E0,5.899312973E0,-3.016694069E0,-2.299391365E1,2.392952991E1
7.984110227E0,-4.185064793E0,-4.022258818E-1,-2.880703545E1,2.911222843E1
7.989145631E0,-1.072602367E1,-7.852981687E-1,-1.913446045E1,2.194975749E1
7.994181036E0,-6.943184853E0,-3.208230257E0,-8.743624687E0,1.161686403E1
7.999216440E0,-3.179499865E0,-4.242525578E0,-1.915361285E-1,5.305179427E0
8.004221327E0,-2.202665567E0,-2.403778553E0,-5.746083856E-1,3.310598395E0
8.009256731E0,-1.379060149E0,-6.129156351E-1,-2.413355350E0,2.846358466E0
8.014292136E0,-6.416460276E-1,6.703764945E-2,-4.098873138E0,4.149333040E0
8.019327540E0,-5.171475410E-1,-2.011129409E-1,-4.012681961E0,4.050864663E0
8.024332427E0,-1.053448766E-1,-5.363011956E-1,-3.371036053E0,3.415054990E0
8.029367831E0,1.915361285E-1,-8.906430602E-1,-3.715801001E0,3.825847387E0
8.034403237E0,4.692635238E-1,-1.063025594E0,-5.956773758E0,6.069051431E0
8.039438641E0,5.554547906E-1,-1.120486379E0,-8.418013573E0,8.510403766E0
8.044443528E0,4.213795066E-1,-1.235408068E0,-1.063025570E1,1.071009477E1
8.049478932E0,1.819593310E-1,-1.388636947E0,-1.229662037E1,1.237611790E1
8.054514337E0,-1.628057212E-1,-1.158793569E0,-1.362779617E1,1.367794344E1
8.059549741E0,-9.576806799E-3,-1.015141487E0,-1.421198082E1,1.424819297E1
8.064585146E0,5.937620401E-1,-1.072602391E0,-1.456632328E1,1.461782484E1
8.069590032E0,1.474828243E0,-1.053448796E0,-1.462378407E1,1.473566874E1
8.074625437E0,1.752555609E0,-1.034295082E0,-1.392467690E1,1.407259195E1
8.079660841E0,1.158793569E0,-9.959878922E-1,-1.250730991E1,1.260030141E1
8.084696245E0,-3.160346150E-1,-6.512228847E-1,-1.059194851E1,1.061665401E1
8.089731650E0,-1.244984865E0,-1.819593310E-1,-7.613561630E0,7.716826887E0
8.094736537E0,-1.628057122E0,-4.405331016E-1,-5.602431774E0,5.850801756E0
8.099771942E0,-1.446097851E0,-1.283292055E0,-6.081272125E0,6.381215257E0
8.104807346E0,-1.800439715E0,-2.164358377E0,-6.799532890E0,7.359325912E0
8.109842751E0,-1.972822189E0,-2.432508945E0,-7.833827972E0,8.436704799E0
8.114878155E0,-1.991975784E0,-2.308010340E0,-8.293514252E0,8.836133651E0
8.119883042E0,-1.503558636E0,-1.800439715E0,-8.446743965E0,8.766399224E0
8.124918446E0,-8.810662031E-1,-1.312022567E0,-9.117119789E0,9.253083493E0
8.129953851E0,-4.788403511E-1,-9.385270476E-1,-1.013226128E1,1.018689549E1
8.134989255E0,-8.619125932E-2,-6.991068721E-1,-1.145386124E1,1.147550071E1
8.140024660E0,1.149216771E0,-4.979939461E-1,-1.272757626E1,1.278905370E1
8.145060064E0,1.474828243E0,-3.447650373E-1,-1.293826580E1,1.302661519E1
8.150064951E0,6.033388376E-1,-9.576806426E-2,-1.184650993E1,1.186225050E1
8.155100355E0,-1.225831270E0,-4.405331016E-1,-1.089840603E1,1.097597311E1
8.160135761E0,-2.767697096E0,-5.841852427E-1,-1.044829655E1,1.082443164E1
8.165171165E0,-3.725377798E0,-8.044517636E-1,-1.090798283E1,1.155463854E1
8.170206569E0,-4.491522312E0,-1.350329757E0,-1.169328117E1,1.259880898E1
8.175241974E0,-4.893748283E0,-1.762132406E0,-1.196143150E1,1.304337865E1
8.180246861E0,-5.008669853E0,-1.896207690E0,-1.190397072E1,1.305323317E1
8.185282265E0,-4.692635536E0,-1.848323703E0,-1.120486355E1,1.228763997E1
8.190317669E0,-4.060565948E0,-1.896207690E0,-1.051533413E1,1.143048780E1
8.195353074E0,-3.734954596E0,-1.781286120E0,-1.076433086E1,1.153228880E1
8.200388478E0,-3.687070608E0,-1.944091797E0,-1.114740276E1,1.190120040E1
8.205423883E0,-3.581725836E0,-2.298433542E0,-1.153047562E1,1.229078617E1
8.210428769E0,-2.863465309E0,-2.422932148E0,-1.135809326E1,1.196145126E1
8.215464174E0,-2.365471363E0,-2.566584110E0,-1.087925243E1,1.142545151E1
8.220499579E0,-2.097320795E0,-2.738966703E0,-1.002691650E1,1.060376102E1
8.225534984E0,-1.963245392E0,-3.083731890E0,-9.691728592E0,1.035824975E1
