"Time (s)","Acceleration x (m/s^2)","Acceleration y (m/s^2)","Acceleration z (m/s^2)","Absolute acceleration (m/s^2)"
8.579399000E-3,4.884171486E-1,5.114014626E0,8.647856712E0,1.005868394E1
1.358427300E-2,4.596867263E-1,5.181052685E0,8.465897560E0,9.936097841E0
1.861966300E-2,4.309563041E-1,5.190629482E0,8.418013573E0,9.899056029E0
2.365505300E-2,1.628057212E-1,5.363011837E0,8.513781548E0,1.006344265E1
2.869044500E-2,-5.363011956E-1,5.861005783E0,8.676587105E0,1.048437750E1
3.369531800E-2,-1.216254473E0,6.349422932E0,9.117119789E0,1.117659697E1
3.873070900E-2,-1.628057122E0,6.483498096E0,9.643844604E0,1.173414063E1
4.376609900E-2,-1.762132406E0,6.349422932E0,1.034295177E1,1.226364275E1
4.877097200E-2,-1.877054095E0,6.282385349E0,1.106121159E1,1.285854189E1
5.380636400E-2,-1.886630893E0,5.918466568E0,1.079306126E1,1.245302349E1
5.884175400E-2,-1.972822189E0,6.502651691E0,1.141555405E1,1.328500586E1
6.387714400E-2,-2.432508945E0,6.560112476E0,1.152089882E1,1.347899422E1
6.888201800E-2,-9.289502501E-1,6.119579315E0,1.092713642E1,1.255844377E1
7.391740900E-2,-5.171475410E-1,5.659893036E0,1.021845245E1,1.169267298E1
7.895279900E-2,-3.543418646E-1,5.343858242E0,9.500192642E0,1.090578009E1
8.395767300E-2,-5.746084079E-2,5.094861031E0,8.829815865E0,1.019443764E1
8.899306300E-2,9.576806426E-2,5.018246651E0,8.264783859E0,9.669468611E0
9.402845400E-2,4.979939461E-1,4.989516258E0,7.632715225E0,9.132448312E0
9.906384500E-2,9.672574997E-1,5.046977043E0,7.163451672E0,8.816042434E0
1.040687180E-1,1.053448796E0,5.803544998E0,6.933608055E0,9.103065944E0
1.091041080E-1,1.225831270E0,5.573701382E0,6.531382084E0,8.673393876E0
1.141395000E-1,1.570596337E0,5.171475887E0,6.052541733E0,8.114443735E0
1.191443720E-1,2.308010340E0,5.037400246E0,5.755661011E0,7.989364595E0
1.241797630E-1,2.604891539E0,4.845864296E0,5.707777023E0,7.927583443E0
1.292151540E-1,2.288856745E0,4.577713490E0,5.726930618E0,7.680628900E0
1.342505450E-1,2.873042107E0,4.730942726E0,5.995080948E0,8.159484395E0
1.392554170E-1,2.710236311E0,4.635174274E0,6.196194172E0,8.198966010E0
1.442908090E-1,2.355894566E0,4.395754337E0,6.186617374E0,7.946516843E0
1.493261990E-1,1.972822189E0,4.242525578E0,6.253654957E0,7.810201725E0
1.543310730E-1,1.790862918E0,4.185064793E0,6.416460514E0,7.867205529E0
1.593664630E-1,1.628057122E0,4.041412354E0,6.636727333E0,7.939126747E0
1.644018540E-1,1.484405041E0,4.060565948E0,6.799532890E0,8.057623823E0
1.694372450E-1,1.350329757E0,3.936067581E0,7.010222435E0,8.152253495E0
1.744421180E-1,1.273715258E0,3.878606796E0,7.192182064E0,8.270031686E0
1.794775080E-1,1.149216771E0,3.734954596E0,7.354987621E0,8.328651027E0
1.845129000E-1,9.768342972E-1,3.581725836E0,7.479485989E0,8.350190169E0
1.895177730E-1,9.193734527E-1,3.409343243E0,7.565677166E0,8.349152045E0
1.945531630E-1,8.906430602E-1,3.275267839E0,7.431602001E0,8.170026486E0
1.995885540E-1,6.033388376E-1,3.122039080E0,7.498639584E0,8.144982589E0
2.046239450E-1,4.118026793E-1,3.026270866E0,7.489062786E0,8.087889602E0
2.096288170E-1,8.523358107E-1,3.256114244E0,7.211335659E0,7.958147919E0
2.146642090E-1,8.140285611E-1,3.102885485E0,7.125144482E0,7.813976242E0
2.196995990E-1,4.884171486E-1,2.853888512E0,6.952761650E0,7.531542041E0
2.247349900E-1,2.681505978E-1,2.509123325E0,6.588842869E0,7.055526554E0
2.297398630E-1,6.512228847E-1,2.183511972E0,6.339846134E0,6.736873517E0
2.347752540E-1,1.024718285E0,1.781286120E0,6.052541733E0,6.391892461E0
2.398106440E-1,1.675941229E0,1.321599364E0,5.736507416E0,6.120696138E0
2.448155180E-1,2.288856745E0,7.757213712E-1,5.315127850E0,5.838766385E0
2.498509080E-1,2.748543501E0,5.267243981E-1,4.941632271E0,5.679054452E0
2.548862990E-1,2.758120298E0,3.064578176E-1,4.577713490E0,5.353186412E0
2.598911730E-1,2.260126352E0,1.915361285E-1,4.453215122E0,4.997597637E0
2.649265630E-1,1.771709204E0,1.723825186E-1,4.481945515E0,4.822499853E0
2.699619530E-1,1.484405041E0,4.884171486E-1,4.635174274E0,4.891507967E0
2.749973450E-1,1.005564690E0,7.565677166E-1,4.481945515E0,4.655254091E0
2.800022180E-1,3.543418646E-1,7.852981687E-1,4.213795185E0,4.300967476E0
2.850376090E-1,-3.160346150E-1,7.852981687E-1,4.108449936E0,4.194750525E0
2.900729990E-1,-7.374141216E-1,6.799532771E-1,4.290409565E0,4.406101483E0
2.950778720E-1,-9.864110947E-1,7.948749661E-1,4.539406300E0,4.712859282E0
3.001132640E-1,-1.082179189E0,8.810662031E-1,4.750096321E0,4.950838768E0
3.051486540E-1,-9.481038451E-1,1.149216771E0,4.903325081E0,5.124665544E0
3.101840440E-1,-6.129156351E-1,1.551442742E0,5.075707436E0,5.342793851E0
3.151889180E-1,-3.447650373E-1,1.915361404E0,5.564124584E0,5.894654751E0
3.202243090E-1,-2.968810201E-1,2.375048161E0,6.224924564E0,6.669233684E0
3.252596990E-1,-5.171475410E-1,3.179499865E0,7.058106422E0,7.758448765E0
3.302645730E-1,-9.576807022E-1,4.118026733E0,8.101978302E0,9.138782682E0
3.352999630E-1,-1.254561663E0,5.171475887E0,9.404424667E0,1.080561387E1
3.403353540E-1,-1.656787634E0,6.119579315E0,1.120486355E1,1.287412768E1
3.453707450E-1,-2.250549555E0,6.933608055E0,1.348414421E1,1.532847152E1
3.503756180E-1,-3.122039080E0,7.575253963E0,1.614649582E1,1.810637810E1
3.554110080E-1,-3.505111217E0,8.341399193E0,1.887588692E1,2.093236375E1
3.604464000E-1,-3.754108191E0,9.193734169E0,2.131797218E1,2.351752568E1
3.654512720E-1,-3.888183594E0,1.051533413E1,2.356852150E1,2.609914614E1
3.704866630E-1,-3.715801001E0,1.199973869E1,2.570414925E1,2.860951230E1
3.755220540E-1,-2.987963676E0,1.241154194E1,2.790681458E1,3.068818339E1
3.805574450E-1,-1.561019540E0,1.181777954E1,2.975513840E1,3.205409422E1
3.855623170E-1,-2.777273953E-1,9.921571732E0,3.075112724E1,3.231325649E1
3.905977090E-1,1.024718285E0,8.140285492E0,3.151727104E1,3.256766294E1
3.956330990E-1,1.647210717E0,6.837840080E0,3.190991974E1,3.267586782E1
4.006379720E-1,1.752555609E0,6.234501362E0,3.216849518E1,3.281390773E1
4.056733630E-1,1.637633920E0,6.263231754E0,3.151727104E1,3.217527453E1
4.107087540E-1,1.187524080E0,6.129156113E0,3.053086090E1,3.116264166E1
4.157441440E-1,-5.554547906E-1,5.918466568E0,2.865380669E1,2.926392684E1
4.207490180E-1,-1.838746905E0,6.387730122E0,2.674802208E1,2.756158144E1
4.257844080E-1,-3.045424461E0,6.914454460E0,2.501461983E1,2.613073852E1
4.308198000E-1,-3.227383852E0,7.900865555E0,2.350148392E1,2.500318838E1
4.358246730E-1,-3.466804028E0,8.734047890E0,2.147120094E1,2.343746558E1
4.408600630E-1,-3.763684988E0,8.887276649E0,1.898123169E1,2.129404065E1
4.458954540E-1,-3.849876404E0,8.983044624E0,1.684560394E1,1.947539502E1
4.509308450E-1,-4.003105164E0,9.385271072E0,1.484405041E1,1.801260660E1
4.559357180E-1,-4.022258759E0,9.576807022E0,1.298614979E1,1.662930800E1
4.609711090E-1,-3.715801001E0,9.500192642E0,1.107078838E1,1.505400919E1
4.660064990E-1,-3.275267839E0,9.327810287E0,9.509769440E0,1.371754858E1
4.710113720E-1,-2.786850691E0,9.050082207E0,8.283937454E0,1.258150009E1
4.760467640E-1,-2.509123325E0,9.088389397E0,7.450755596E0,1.201699965E1
4.810821540E-1,-2.384624958E0,9.078812599E0,6.579266071E0,1.146289738E1
4.861175440E-1,-2.288856745E0,9.040505409E0,5.966350555E0,1.107099554E1
4.911224180E-1,-1.972822189E0,8.916007042E0,5.477933407E0,1.064870712E1
4.961578090E-1,-1.493981838E0,8.609549522E0,4.730942726E0,9.936706889E0
5.011931990E-1,-9.576807022E-1,8.149862289E0,4.347870350E0,9.286623942E0
5.061980730E-1,-3.926490843E-1,7.556100368E0,3.782838583E0,8.459237189E0
5.112334630E-1,1.723825186E-1,6.876147270E0,3.380612850E0,7.664180338E0
5.162688530E-1,6.607996821E-1,6.138733387E0,3.026270866E0,6.875974053E0
5.213042450E-1,1.177947283E0,5.430049419E0,2.681505919E0,6.169559992E0
5.263091180E-1,1.599326730E0,4.692635536E0,2.624045134E0,5.609303622E0
5.313445080E-1,1.877054095E0,4.060565948E0,2.375048161E0,5.064818029E0
5.363798990E-1,2.097320795E0,3.533841610E0,2.164358377E0,4.644484711E0
5.413847720E-1,2.049436569E0,2.940079689E0,1.781286120E0,4.002154304E0
5.464201640E-1,1.149216771E0,1.944091797E0,-2.317587137E0,3.235954610E0
5.514555540E-1,4.884171486E-1,1.244984865E0,-4.788403213E-2,1.338219528E0
5.564909440E-1,2.106897533E-1,1.139639974E0,1.120486379E0,1.612035721E0
5.614958180E-1,4.979939461E-1,1.005564690E0,1.723825186E-1,1.135285888E0
5.665312090E-1,9.002198577E-1,8.906430602E-1,3.830722719E-2,1.266928686E0
5.715665990E-1,1.254561663E0,8.236053586E-1,0.000000000E0,1.500750063E0
5.766019900E-1,1.455674648E0,4.501099288E-1,1.915361360E-2,1.523796079E0
5.816068630E-1,1.675941229E0,-2.873042040E-2,9.576806799E-3,1.676214830E0
5.866422540E-1,2.001552582E0,-6.033388376E-1,3.830722719E-2,2.090860573E0
5.916776450E-1,2.442085743E0,-1.254561663E0,2.394201756E-1,2.755908156E0
5.967130350E-1,2.892195702E0,-1.790862918E0,4.118026793E-1,3.426597060E0
6.017179080E-1,3.447650433E0,-2.240972757E0,6.703764796E-1,4.166252156E0
6.067533000E-1,3.974374771E0,-2.633621931E0,7.948749661E-1,4.833574817E0
6.117886900E-1,4.625597477E0,-2.873042107E0,8.523358107E-1,5.511533298E0
6.167935630E-1,5.334281445E0,-3.150769472E0,4.884171486E-1,6.214536033E0
6.218289540E-1,6.148310184E0,-3.466804028E0,3.256114423E-1,7.065866621E0
6.268643450E-1,7.019799232E0,-3.840299606E0,2.394201756E-1,8.005173599E0
6.318997350E-1,7.824251175E0,-4.299986362E0,-8.619125932E-2,8.928393926E0
6.369046090E-1,8.236053467E0,-4.280832767E0,-2.202665508E-1,9.284752191E0
6.419399990E-1,8.130708694E0,-3.983951569E0,-4.022258818E-1,9.063226778E0
6.469753900E-1,7.680599213E0,-3.667917013E0,-7.948749661E-1,8.548511314E0
6.520107810E-1,7.115567684E0,-3.658340216E0,-9.672574997E-1,8.059177605E0
6.570156540E-1,6.081272125E0,-4.060565948E0,-9.385270476E-1,7.372306254E0
6.620510440E-1,4.740519524E0,-4.405331135E0,-6.224924326E-1,6.501304837E0
6.670864360E-1,3.533841610E0,-4.462791920E0,-7.469909191E-1,5.741301566E0
6.721218260E-1,2.662352324E0,-4.424484730E0,-1.474828243E0,5.370223772E0
6.771267000E-1,2.394201756E0,-4.357447147E0,-2.193088770E0,5.434076374E0
6.821620900E-1,2.413355350E0,-4.510675907E0,-2.901772499E0,5.881391402E0
6.871974810E-1,2.394201756E0,-4.730942726E0,-3.371036053E0,6.283144531E0
6.922023540E-1,2.250549555E0,-4.922478676E0,-3.457227230E0,6.422475359E0
6.972377450E-1,2.116474390E0,-4.999093056E0,-3.303998232E0,6.355060939E0
7.022731350E-1,1.618480325E0,-4.778826714E0,-3.485957623E0,6.132582153E0
7.073085270E-1,1.168370485E0,-4.587290287E0,-3.524264812E0,5.901589975E0
7.123133990E-1,1.024718285E0,-4.299986362E0,-3.236960649E0,5.478854308E0
7.173487900E-1,1.005564690E0,-4.204218388E0,-2.863465309E0,5.185175616E0
7.223841810E-1,4.022258818E-1,-4.185064793E0,-2.317587137E0,4.800808590E0
7.274195720E-1,-9.289502501E-1,-3.859453201E0,-1.781286120E0,4.351012276E0
7.324244440E-1,-2.413355350E0,-2.892195702E0,-9.002198577E-1,3.872915674E0
7.374598360E-1,-3.926490784E0,-1.532289028E0,-7.661445439E-2,4.215579357E0
7.424952260E-1,-4.893748283E0,-1.819593310E-1,6.799532771E-1,4.944109416E0
7.475000990E-1,-4.932055473E0,9.576807022E-1,1.235408068E0,5.173833841E0
7.525354900E-1,-4.367023945E0,2.097320795E0,1.685518026E0,5.129388235E0
7.575708810E-1,-3.629609823E0,3.371036053E0,2.126051188E0,5.390551474E0
7.626062710E-1,-3.055001259E0,4.683058739E0,2.920926094E0,6.308397664E0
7.676111450E-1,-2.662352324E0,6.071695328E0,4.395754337E0,7.954637656E0
7.726465350E-1,-2.528276920E0,7.757213593E0,6.483498096E0,1.042124246E1
7.776819260E-1,-2.576161146E0,9.816226959E0,9.050082207E0,1.359775371E1
7.827173170E-1,-2.604891539E0,1.222958183E1,1.164539719E1,1.708693675E1
7.877221900E-1,-2.078166962E0,1.448970890E1,1.366610336E1,2.002580393E1
7.927575800E-1,-4.213795066E-1,1.568680954E1,1.464293766E1,2.146320520E1
7.977929720E-1,2.126051188E0,1.520796967E1,1.481532001E1,2.133766956E1
8.028283620E-1,4.606443882E0,1.415452003E1,1.474828243E1,2.095427396E1
8.078332350E-1,6.320692539E0,1.371398735E1,1.519839191E1,2.142465216E1
8.128686260E-1,7.048529625E0,1.408748245E1,1.592622948E1,2.240052939E1
8.179040170E-1,7.220912457E0,1.475785923E1,1.665406609E1,2.339431347E1
8.229088900E-1,7.115567684E0,1.506431675E1,1.707544708E1,2.385656798E1
8.279442810E-1,6.694188118E0,1.502600956E1,1.739148140E1,2.393860362E1
8.329796710E-1,6.110002518E0,1.492066479E1,1.763090134E1,2.389156860E1
8.380150630E-1,5.573701382E0,1.455674648E1,1.833958435E1,2.406876335E1
8.430199350E-1,4.979939461E0,1.407790565E1,1.970906830E1,2.472720360E1
8.480553260E-1,4.462791920E0,1.343626022E1,2.100193787E1,2.532846215E1
8.530907170E-1,4.050989151E0,1.279461384E1,2.195961761E1,2.573591774E1
8.581261080E-1,3.620033026E0,1.211466026E1,2.261084175E1,2.590597995E1
8.631309800E-1,3.045424461E0,1.154005241E1,2.280237770E1,2.573705206E1
8.681663720E-1,2.384624958E0,1.085052204E1,2.263957214E1,2.521845538E1
8.732017620E-1,1.541865945E0,1.020887566E1,2.207453918E1,2.436973067E1
8.782066350E-1,5.937620401E-1,9.749189377E0,2.100193787E1,2.316205174E1
8.832420260E-1,-3.256114423E-1,9.356540680E0,1.958456993E1,2.170728577E1
8.882774170E-1,-9.289502501E-1,8.820239067E0,1.790862846E1,1.998445744E1
8.933128070E-1,-1.283292055E0,8.274360657E0,1.629972458E1,1.832465291E1
8.983176810E-1,-1.197100878E0,7.623138428E0,1.468124485E1,1.658566370E1
9.033530710E-1,-9.672574997E-1,7.115567684E0,1.285207462E1,1.472218437E1
9.083884620E-1,-2.681505978E-1,6.607996464E0,1.160709000E1,1.335896928E1
9.134238530E-1,2.777273953E-1,6.119579315E0,1.042914295E1,1.209518112E1
9.184287260E-1,7.948749661E-1,5.918466568E0,8.887276649E0,1.070718259E1
9.234641160E-1,1.350329757E0,5.832275391E0,7.048529625E0,9.247734672E0
9.284995080E-1,1.972822189E0,5.803544998E0,5.382165432E0,8.157258527E0
9.335043810E-1,2.652775526E0,5.497087002E0,3.792415380E0,7.185930553E0
9.385397710E-1,3.246537447E0,5.305551052E0,2.585737944E0,6.736090712E0
9.435751620E-1,3.533841610E0,5.027823448E0,1.666364431E0,6.367402576E0
9.486105530E-1,3.610456228E0,4.826710701E0,1.024718285E0,6.114129368E0
9.536154270E-1,3.533841610E0,4.577713490E0,6.033388376E-1,5.814423021E0
9.586508170E-1,3.524264812E0,3.926490784E0,1.915361285E-1,5.279626732E0
9.636862070E-1,3.371036053E0,3.303998232E0,1.149216816E-1,4.721598816E0
9.687215990E-1,3.026270866E0,2.614468336E0,3.351882398E-1,4.013241980E0
9.737264720E-1,2.537853718E0,2.126051188E0,9.959878922E-1,3.457280293E0
9.787618620E-1,1.781286120E0,1.647210717E0,1.991975784E0,3.139148119E0
9.837972530E-1,1.072602391E0,1.197100878E0,3.150769472E0,3.537071482E0
9.888021260E-1,2.968810201E-1,8.236053586E-1,4.165910721E0,4.256909238E0
9.938375170E-1,-2.968810201E-1,6.129156351E-1,5.190629482E0,5.235115886E0
9.988729080E-1,-9.193734527E-1,5.267243981E-1,6.090848923E0,6.182323733E0
1.003908298E0,-1.244984865E0,4.596867263E-1,6.895300865E0,7.021856822E0
1.008913171E0,-1.666364431E0,5.458779931E-1,7.613561630E0,7.812878720E0
1.013948563E0,-1.982398987E0,5.650315881E-1,8.054094315E0,8.313699638E0
1.018983953E0,-2.250549555E0,6.799532771E-1,8.149862289E0,8.482191055E0
1.023988826E0,-2.375048161E0,9.193734527E-1,8.331821442E0,8.712367637E0
1.029024217E0,-2.384624958E0,1.139639974E0,8.034940720E0,8.458456587E0
1.034059608E0,-2.432508945E0,1.522712231E0,7.565677166E0,8.091676173E0
1.039094998E0,-2.355894566E0,1.924938202E0,6.952761650E0,7.589237172E0
1.044099872E0,-2.547430515E0,2.154781580E0,6.052541733E0,6.911276822E0
1.049135262E0,-2.949656487E0,2.384624958E0,5.477933407E0,6.662932086E0
1.054170653E0,-3.227383852E0,2.652775526E0,4.625597477E0,6.232926804E0
1.059206044E0,-3.361459255E0,2.873042107E0,3.859453201E0,5.869340532E0
1.064210917E0,-3.533841610E0,3.150769472E0,3.189076662E0,5.708379345E0
1.069246307E0,-3.572149038E0,3.256114244E0,2.930502892E0,5.652466357E0
1.074281699E0,-3.552995205E0,3.332728863E0,3.035847664E0,5.739967564E0
1.079286571E0,-3.801992416E0,3.323152065E0,3.572149038E0,6.185364560E0
1.084321962E0,-4.146757126E0,3.572149038E0,4.271255970E0,6.942583883E0
1.089357353E0,-4.376600742E0,3.696647406E0,4.941632271E0,7.565683419E0
1.094392743E0,-4.232948780E0,3.916913986E0,5.573701382E0,8.020362688E0
1.099397617E0,-3.888183594E0,4.213795185E0,6.042964935E0,8.330154064E0
1.104433008E0,-3.514688015E0,4.434061527E0,6.397306919E0,8.540460719E0
1.109468398E0,-3.169923067E0,4.644751072E0,6.952761650E0,8.942204389E0
1.114503789E0,-2.719813108E0,4.941632271E0,7.498639584E0,9.383320758E0
1.119508662E0,-2.365471363E0,5.477933407E0,8.178592682E0,1.012386228E1
1.124544053E0,-2.164358377E0,6.272808552E0,8.839392662E0,1.105293793E1
1.129579444E0,-2.221819162E0,7.259219646E0,9.854534149E0,1.243963800E1
1.134614834E0,-2.595314741E0,8.389283180E0,1.104205799E1,1.410825204E1
1.139619707E0,-3.265691042E0,9.567230225E0,1.249773312E1,1.607451291E1
1.144655099E0,-4.127603531E0,1.069729328E1,1.394383049E1,1.805268964E1
1.149690489E0,-4.721365929E0,1.187524033E1,1.505473995E1,1.974734980E1
1.154695362E0,-4.529829502E0,1.265096188E1,1.596453667E1,2.086702237E1
1.159730753E0,-3.754108191E0,1.337879944E1,1.694137192E1,2.191108590E1
1.164766144E0,-3.198653460E0,1.422155857E1,1.795651245E1,2.312834736E1
1.169801534E0,-2.700659513E0,1.475785923E1,1.977610588E1,2.482302026E1
1.174806408E0,-1.407790542E0,1.387679291E1,2.072421074E1,2.498079595E1
1.179841798E0,9.576806799E-3,1.228704357E1,2.097320747E1,2.430734381E1
1.184877189E0,1.235408068E0,1.076433086E1,2.094447708E1,2.358109777E1
1.189912580E0,2.164358377E0,9.902418137E0,2.124135780E1,2.353587928E1
1.194917453E0,2.461239338E0,9.346963882E0,2.195004082E1,2.398390554E1
1.199952843E0,2.164358377E0,8.762778282E0,2.317587280E1,2.487150600E1
1.204988235E0,1.762132406E0,7.709329605E0,2.485181427E1,2.607971522E1
1.210023625E0,1.407790542E0,6.282385349E0,2.677675247E1,2.753987496E1
1.215028498E0,1.302445769E0,4.692635536E0,2.894111061E1,2.934799953E1
1.220063889E0,1.110909581E0,3.256114244E0,3.098097038E1,3.117141200E1
1.225099280E0,9.289502501E-1,1.991975784E0,3.284844589E1,3.292189718E1
1.230134670E0,5.458779931E-1,1.015141487E0,3.397851181E1,3.399805524E1
1.235139544E0,3.734954596E-1,3.447650373E-1,3.420835495E1,3.421213104E1
1.240174934E0,2.873041928E-1,-9.576806426E-2,3.353797913E1,3.353934643E1
1.245210326E0,4.596867263E-1,-3.543418646E-1,3.219722366E1,3.220245459E1
1.250245716E0,8.714894056E-1,-5.075707436E-1,3.020524788E1,3.022208003E1
1.255250589E0,1.331176162E0,-5.363011956E-1,2.789723778E1,2.793412831E1
1.260285980E0,1.637633920E0,-5.937620401E-1,2.527319336E1,2.533315418E1
1.265321371E0,1.972822189E0,-4.213795066E-1,2.262041855E1,2.271019426E1
1.270326243E0,2.432508945E0,-3.256114423E-1,1.979525948E1,1.994681479E1
1.275361635E0,2.777273893E0,-1.723825186E-1,1.720952225E1,1.743303250E1
1.280397025E0,2.873042107E0,3.830722719E-2,1.479616642E1,1.507257042E1
1.285432416E0,3.007117271E0,2.681505978E-1,1.258392429E1,1.294101270E1
1.290437289E0,2.863465309E0,5.650315881E-1,1.053448772E1,1.093133688E1
1.295472680E0,2.681505919E0,7.948749661E-1,8.791508675E0,9.225666641E0
1.300508070E0,2.901772499E0,4.692635238E-1,6.646304131E0,7.267313843E0
1.305543462E0,3.064578056E0,1.244984865E-1,4.788403511E0,5.686470498E0
1.310548334E0,3.150769472E0,-1.915361360E-2,3.265691042E0,4.537890822E0
1.315583725E0,3.189076662E0,-1.053448766E-1,2.030282974E0,3.781977850E0
1.320619116E0,3.074155092E0,-6.703764945E-2,1.024718285E0,3.241137322E0
1.325654507E0,2.987963676E0,-2.489969730E-1,2.298433632E-1,3.007117290E0
1.330659379E0,3.141192675E0,-3.734954596E-1,-4.309563041E-1,3.192540307E0
1.335694771E0,3.342305660E0,-6.129156351E-1,-1.034295082E0,3.551962700E0
1.340730161E0,3.648763418E0,-8.714894056E-1,-1.407790542E0,4.006849445E0
1.345765552E0,3.773261786E0,-1.149216771E0,-1.742978811E0,4.312328701E0
1.350770425E0,3.869029999E0,-1.426944256E0,-1.810016513E0,4.503523378E0
1.355805816E0,3.945644379E0,-1.704671621E0,-1.915361404E0,4.705594990E0
1.360841206E0,3.983951569E0,-2.097320795E0,-1.886630893E0,4.881598175E0
1.365846080E0,3.993528366E0,-2.375048161E0,-1.877054095E0,5.011232848E0
1.370881470E0,3.974374771E0,-2.576161146E0,-1.723825216E0,5.040221667E0
1.375916861E0,3.974374771E0,-2.652775526E0,-1.532289028E0,5.018045683E0
1.380952252E0,4.003105164E0,-2.700659513E0,-1.379060149E0,5.021973681E0
1.385957125E0,3.964797974E0,-2.681505919E0,-1.197100878E0,4.933877529E0
1.390992516E0,4.012681961E0,-2.633621931E0,-1.091755986E0,4.922348233E0
1.396027907E0,4.089296341E0,-2.413355350E0,-9.002198577E-1,4.832910552E0
1.401063297E0,4.089296341E0,-2.221819162E0,-7.757213712E-1,4.718110702E0
1.406068171E0,3.926490784E0,-1.953668594E0,-6.895300746E-1,4.439549817E0
1.411103561E0,3.955221176E0,-1.742978811E0,-7.182605267E-1,4.381512053E0
1.416138952E0,4.108449936E0,-1.522712231E0,-1.206677675E0,4.544676493E0
1.421174343E0,4.338293552E0,-1.312022567E0,-1.742978811E0,4.855941649E0
1.426179216E0,4.481945515E0,-1.158793569E0,-2.566584110E0,5.293202445E0
1.431214606E0,4.558559895E0,-9.959878922E-1,-3.418920040E0,5.784589392E0
1.436249998E0,4.395754337E0,-9.576807022E-1,-4.367023945E0,6.269825090E0
1.441285388E0,4.242525578E0,-9.193734527E-1,-5.410895824E0,6.937006879E0
1.446290261E0,4.041412354E0,-1.082179189E0,-6.138733387E0,7.428874289E0
1.451325652E0,3.801992416E0,-1.120486379E0,-6.837840080E0,7.903587351E0
1.456361043E0,3.390189648E0,-1.321599364E0,-7.374141216E0,8.223014618E0
1.461396433E0,2.729389906E0,-1.474828243E0,-7.661445618E0,8.265738718E0
1.466401307E0,2.164358377E0,-1.656787634E0,-7.785943985E0,8.249261554E0
1.471436697E0,1.762132406E0,-1.857900500E0,-7.594407558E0,8.014482582E0
1.476472088E0,1.292868972E0,-1.924938202E0,-7.211335659E0,7.574975858E0
1.481476961E0,7.852981687E-1,-2.030282974E0,-6.521805286E0,6.875513534E0
1.486512352E0,1.819593310E-1,-1.982398987E0,-5.391742229E0,5.747512437E0
1.491547742E0,-3.830722570E-1,-1.685518026E0,-4.060565948E0,4.413152070E0
1.496583134E0,-7.948749661E-1,-1.292868972E0,-2.624045134E0,3.031327969E0
1.501588006E0,-9.768342972E-1,-8.140285611E-1,-1.082179189E0,1.669718401E0
1.506623397E0,-1.273715258E0,-2.394201756E-1,3.447650373E-1,1.341094892E0
1.511658788E0,-1.618480325E0,3.639186621E-1,1.972822189E0,2.577584673E0
1.516694179E0,-2.193088770E0,1.340752959E0,3.706224203E0,4.510360816E0
1.521699052E0,-2.499546528E0,2.403778553E0,5.420472622E0,6.434858788E0
1.526734443E0,-2.489969730E0,3.581725836E0,7.220912457E0,8.436248332E0
1.531769833E0,-1.915361404E0,4.874594688E0,8.877699852E0,1.030746513E1
1.536805225E0,-9.672574997E-1,6.052541733E0,1.039083576E1,1.206392624E1
1.541810097E0,1.915361360E-2,7.220912457E0,1.205719948E1,1.405410982E1
1.546845488E0,1.110909581E0,8.331821442E0,1.429817295E1,1.658587105E1
1.551880879E0,2.116474390E0,9.471462250E0,1.697010231E1,1.954923102E1
1.556916270E0,3.208230257E0,1.062067890E1,1.939303398E1,2.234236623E1
1.561921142E0,4.548983097E0,1.143470764E1,2.136585617E1,2.465655280E1
1.566956534E0,5.870582581E0,1.178904915E1,2.293645287E1,2.644855931E1
1.571991924E0,7.556100368E0,1.165497398E1,2.439212608E1,2.806971475E1
1.577027315E0,9.481039047E0,1.130063248E1,2.500504303E1,2.903182000E1
1.582032188E0,1.117613316E1,1.080263805E1,2.621171951E1,3.047387703E1
1.587067579E0,1.237323475E1,1.020887566E1,2.657563972E1,3.104162862E1
1.592102969E0,1.313937855E1,9.481039047E0,2.737051392E1,3.180689237E1
1.597138361E0,1.330218506E1,8.724471092E0,2.832819366E1,3.248924560E1
1.602143233E0,1.291911221E1,8.092401505E0,2.915180016E1,3.289708003E1
1.607178624E0,1.199973869E1,7.297526836E0,3.008074951E1,3.319787821E1
1.612214015E0,1.060152531E1,6.531382084E0,3.110546875E1,3.350524551E1
1.617249406E0,8.858546257E0,5.573701382E0,3.229299164E1,3.394668316E1
1.622254278E0,7.029376030E0,4.797980309E0,3.282929230E1,3.391452749E1
1.627289670E0,5.324704647E0,4.232948780E0,3.316448212E1,3.385488457E1
1.632325060E0,3.955221176E0,4.060565948E0,3.326982498E1,3.374926999E1
1.637329933E0,2.873042107E0,3.916913986E0,3.281971741E1,3.317725783E1
1.642365324E0,2.375048161E0,3.677493811E0,3.085647202E1,3.116547256E1
1.647400715E0,2.116474390E0,3.696647406E0,2.871126747E1,2.902553265E1
1.652436105E0,2.068590164E0,3.562572241E0,2.620214272E1,2.652401307E1
1.657440979E0,1.991975784E0,3.581725836E0,2.312798882E1,2.348830760E1
1.662476369E0,2.068590164E0,3.715801001E0,1.979525948E1,2.024693903E1
1.667511760E0,2.011129379E0,3.715801001E0,1.648168373E1,1.701463244E1
1.672547151E0,1.857900500E0,3.811569214E0,1.324472427E1,1.390692544E1
1.677552024E0,1.561019540E0,3.964797974E0,9.950302124E0,1.082427445E1
1.682587415E0,1.302445769E0,4.050989151E0,7.048529625E0,8.233386178E0
1.687622806E0,1.082179189E0,4.012681961E0,4.146757126E0,5.870972916E0
1.692658196E0,1.177947283E0,3.859453201E0,1.254561663E0,4.225738253E0
1.697663070E0,1.130063176E0,3.696647406E0,-1.149216771E0,4.032734061E0
1.702698460E0,1.177947283E0,3.409343243E0,-3.284844637E0,4.878666358E0
1.707733851E0,1.216254473E0,2.978386879E0,-4.960785866E0,5.912652514E0
1.712769242E0,1.149216771E0,2.585737944E0,-6.196194172E0,6.811722405E0
1.717774115E0,8.619126081E-1,2.346317768E0,-6.991068840E0,7.424496208E0
1.722809505E0,9.193734527E-1,1.666364431E0,-7.489062786E0,7.727100321E0
1.727844897E0,1.120486379E0,8.523358107E-1,-7.747636795E0,7.874505824E0
1.732880287E0,9.289502501E-1,2.777273953E-1,-7.536946774E0,7.599055714E0
1.737885160E0,6.129156351E-1,-1.819593310E-1,-6.789956093E0,6.819991094E0
1.742920551E0,2.394201756E-1,-6.703764796E-1,-5.573701382E0,5.618974438E0
1.747955942E0,-2.394201756E-1,-1.110909581E0,-4.290409565E0,4.438361900E0
1.752960814E0,-9.002198577E-1,-1.513135433E0,-2.796427488E0,3.304539503E0
1.757996206E0,-1.398213744E0,-1.781286120E0,-1.446097851E0,2.686853348E0
1.763031596E0,-1.647210717E0,-1.953668594E0,-3.351882398E-1,2.577299998E0
1.768066987E0,-1.877054095E0,-2.173935175E0,6.033388376E-1,2.934849907E0
1.773071860E0,-1.963245392E0,-2.240972757E0,1.379060149E0,3.283001411E0
1.778107251E0,-2.145204782E0,-2.346317768E0,1.991975784E0,3.751676712E0
1.783142641E0,-2.221819162E0,-2.231395960E0,2.327163935E0,3.915520438E0
1.788178033E0,-2.365471363E0,-1.867477298E0,2.633621931E0,4.002360641E0
1.793182905E0,-2.691082716E0,-1.493981838E0,2.729389906E0,4.113815404E0
1.798218296E0,-2.873042107E0,-1.168370485E0,2.585737944E0,4.038007089E0
1.803253687E0,-3.169923067E0,-8.140285611E-1,2.403778553E0,4.060690345E0
1.808289078E0,-3.438073635E0,-4.692635238E-1,2.078166962E0,4.044667662E0
1.813293951E0,-3.658340216E0,-1.819593310E-1,1.800439715E0,4.081439146E0
1.818329342E0,-4.060565948E0,2.681505978E-1,1.474828243E0,4.328419909E0
1.823364732E0,-4.242525578E0,4.884171486E-1,7.852981687E-1,4.342150136E0
1.828400124E0,-4.424484730E0,6.224924326E-1,1.082179189E0,4.597246322E0
1.833404996E0,-4.539406300E0,8.619126081E-1,1.350329757E0,4.813781606E0
1.838440387E0,-4.481945515E0,1.254561663E0,1.379060149E0,4.854231912E0
1.843475778E0,-4.299986362E0,1.618480325E0,1.628057122E0,4.874415993E0
1.848511169E0,-3.859453201E0,2.020706177E0,1.503558636E0,4.608613787E0
1.853516041E0,-3.150769472E0,2.470816135E0,1.034295082E0,4.135462121E0
1.858551433E0,-2.365471363E0,2.681505919E0,1.225831270E0,3.780025273E0
1.863586823E0,-1.321599364E0,2.834734917E0,1.005564690E0,3.285347360E0
1.868622214E0,-5.937620401E-1,3.236960649E0,9.481038451E-1,3.424816566E0
1.873657605E0,-1.532289088E-1,3.744531393E0,1.244984865E0,3.949048210E0
1.878662478E0,8.619125932E-2,4.050989151E0,1.541865945E0,4.335353806E0
1.883697868E0,2.298433632E-1,4.434061527E0,2.212242365E0,4.960619506E0
1.888733260E0,3.639186621E-1,4.673481941E0,3.074155092E0,5.605738112E0
1.893738132E0,2.394201756E-1,4.788403511E0,4.098873138E0,6.307685091E0
1.898773523E0,-3.160346150E-1,4.960785866E0,5.228936672E0,7.214641572E0
1.903808914E0,-1.493981838E0,4.989516258E0,6.291962147E0,8.167988852E0
1.908844304E0,-2.968810081E0,5.554547787E0,7.910442352E0,1.011147529E1
1.913879695E0,-4.548983097E0,6.224924564E0,9.155426979E0,1.196932647E1
1.918884569E0,-5.947196960E0,7.096413612E0,1.070687008E1,1.415504520E1
1.923919959E0,-7.383718014E0,8.178592682E0,1.227746677E1,1.649681364E1
1.928955349E0,-8.245630264E0,9.538499832E0,1.368525696E1,1.860805351E1
1.933990741E0,-8.370129585E0,1.095586681E1,1.485362720E1,2.026623616E1
1.938995614E0,-7.278373241E0,1.206677628E1,1.606030464E1,2.136621613E1
1.944031004E0,-5.200206280E0,1.271799946E1,1.772666931E1,2.242820680E1
1.949066395E0,-3.505111217E0,1.298614979E1,2.029325294E1,2.434629348E1
1.954101786E0,-2.892195702E0,1.310107136E1,2.351106071E1,2.706977729E1
1.959106659E0,-2.422932148E0,1.223915863E1,2.672886848E1,2.949745777E1
1.964142050E0,-1.484405041E0,1.067813969E1,2.937206650E1,3.128808744E1
1.969177440E0,2.489969730E-1,9.165003777E0,3.114377594E1,3.246527489E1
1.974212831E0,2.700659513E0,7.833827972E0,3.285802460E1,3.388675557E1
1.979217705E0,4.884171486E0,6.646304131E0,3.473507690E1,3.570089715E1
1.984253095E0,6.837840080E0,5.516240597E0,3.719631577E1,3.821977072E1
1.989288486E0,8.705317497E0,3.754108191E0,3.979163361E1,4.090537845E1
1.994323877E0,1.002691650E1,1.666364431E0,4.240610123E1,4.360726139E1
1.999328750E0,1.064940929E1,-5.267243981E-1,4.466622543E1,4.592122659E1
2.004364141E0,1.000776291E1,-2.432508945E0,4.643793488E1,4.756631385E1
2.009399531E0,8.475474358E0,-3.639186621E0,4.755842209E1,4.844461638E1
2.014404404E0,6.828263283E0,-4.376600742E0,4.688804626E1,4.758433246E1
2.019439796E0,5.171475887E0,-4.644751072E0,4.497268295E1,4.550670376E1
2.024475186E0,2.892195702E0,-4.453215122E0,4.224329376E1,4.257571830E1
2.029510576E0,7.374141216E-1,-4.022258759E0,3.888183594E1,3.909628513E1
2.034515450E0,-3.160346150E-1,-3.830722809E0,3.462015533E1,3.483287916E1
2.039550841E0,-5.650315881E-1,-3.821146011E0,3.024355507E1,3.048922827E1
2.044586231E0,-8.331822157E-1,-3.217807055E0,2.573287964E1,2.594666779E1
2.049621622E0,-1.015141487E0,-2.212242365E0,2.124135780E1,2.138036038E1
2.054626495E0,-1.149216771E0,-1.359906554E0,1.685518074E1,1.694895757E1
2.059661886E0,-1.379060149E0,-6.129156351E-1,1.266053867E1,1.275016517E1
2.064697277E0,-1.886630893E0,1.244984865E-1,8.753201485E0,8.955077455E0
2.069732667E0,-2.557007313E0,7.086837292E-1,5.200206280E0,5.838036003E0
2.074737540E0,-2.748543501E0,1.082179189E0,1.944091797E0,3.536254528E0
2.079772932E0,-2.489969730E0,1.158793569E0,-9.576807022E-1,2.908591432E0
2.084808322E0,-2.097320795E0,1.187524080E0,-3.505111217E0,4.253795083E0
2.089813195E0,-1.503558636E0,1.082179189E0,-5.449203014E0,5.755485545E0
2.094848586E0,-9.864110947E-1,8.044517636E-1,-6.684611320E0,6.804717334E0
2.099883977E0,-1.053448766E-1,3.830722570E-1,-7.182605267E0,7.193584664E0
2.104919367E0,1.015141487E0,-1.532289088E-1,-6.655880928E0,6.734592955E0
2.109924241E0,2.260126352E0,-9.097966552E-1,-5.688623428E0,6.188403477E0
2.114959631E0,4.070142746E0,-1.762132406E0,-4.625597477E0,6.408379250E0
2.119995023E0,5.008669853E0,-2.355894566E0,-3.371036053E0,6.480809901E0
2.125030413E0,5.707777023E0,-2.892195702E0,-2.126051188E0,6.742670701E0
2.130035286E0,6.253654957E0,-3.313575268E0,-1.149216771E0,7.169984697E0
2.135070677E0,6.655880928E0,-3.725377798E0,-4.405331016E-1,7.640239530E0
2.140106068E0,6.550535679E0,-4.108449936E0,-1.340752989E-1,7.733489170E0
2.145141458E0,6.282385349E0,-4.261679173E0,-7.661445439E-2,7.591847260E0
2.150146332E0,5.659893036E0,-4.328716755E0,-2.873041928E-1,7.131249654E0
2.155181722E0,5.018246651E0,-4.223371983E0,-7.469909191E-1,6.601338181E0
2.160217113E0,4.606443882E0,-4.089296341E0,-1.235408068E0,6.282348518E0
2.165221986E0,4.185064793E0,-3.878606796E0,-1.790862918E0,5.980430418E0
2.170257377E0,3.888183594E0,-3.533841610E0,-2.509123325E0,5.822517329E0
2.175292767E0,3.878606796E0,-3.198653460E0,-3.581725836E0,6.172822255E0
2.180328158E0,3.734954596E0,-2.806004286E0,-4.539406300E0,6.513812665E0
2.185333031E0,3.744531393E0,-2.384624958E0,-5.698200226E0,7.223395141E0
2.190368422E0,3.888183594E0,-2.059013367E0,-6.924031258E0,8.203640446E0
2.195403813E0,4.089296341E0,-1.714248419E0,-8.322244644E0,9.429779855E0
2.200439203E0,4.271255970E0,-1.388636947E0,-9.691728592E0,1.068183239E1
2.205444076E0,4.453215122E0,-1.273715258E0,-1.103248119E1,1.196532978E1
2.210479468E0,4.683058739E0,-1.130063176E0,-1.217212105E1,1.309078350E1
2.215514858E0,4.797980309E0,-1.302445769E0,-1.326387787E1,1.416500745E1
2.220550248E0,4.903325081E0,-1.446097851E0,-1.367568016E1,1.459993232E1
2.225555122E0,4.845864296E0,-1.599326730E0,-1.359906578E1,1.452497287E1
2.230590513E0,4.644751072E0,-1.886630893E0,-1.301488018E1,1.394704968E1
2.235625903E0,4.702212334E0,-2.154781580E0,-1.200931549E1,1.307583814E1
2.240630777E0,4.836287498E0,-2.585737944E0,-1.081221485E1,1.212351877E1
2.245666167E0,4.730942726E0,-2.997540474E0,-9.270348549E0,1.083080930E1
2.250701558E0,4.271255970E0,-3.342305660E0,-7.479485989E0,9.238903904E0
2.255736949E0,3.399766445E0,-3.485957623E0,-5.372588634E0,7.250863470E0
2.260741822E0,2.422932148E0,-3.457227230E0,-3.275267839E0,5.343257409E0
2.265777213E0,1.666364431E0,-3.543418407E0,-1.503558636E0,4.194433573E0
2.270812604E0,1.321599364E0,-3.629609823E0,-3.830722719E-2,3.862921148E0
2.275847994E0,1.398213744E0,-3.524264812E0,1.513135433E0,4.082281590E0
2.280852868E0,1.225831270E0,-2.930502892E0,3.093308687E0,4.433854771E0
2.285888258E0,9.768342972E-1,-2.240972757E0,4.472368717E0,5.096885920E0
2.290923649E0,6.224924326E-1,-1.608903527E0,5.659893036E0,5.916963458E0
2.295928522E0,-1.628057212E-1,-8.619126081E-1,6.550535679E0,6.609002703E0
2.300963913E0,-1.321599364E0,1.532289088E-1,7.287950039E0,7.408395221E0
2.305999303E0,-2.212242365E0,1.110909581E0,8.015787125E0,8.389337257E0
2.311034695E0,-2.758120298E0,1.953668594E0,8.858546257E0,9.481449802E0
2.316039567E0,-2.576161146E0,2.604891539E0,9.816226959E0,1.047761318E1
2.321074958E0,-2.250549555E0,3.380612850E0,1.074517727E1,1.148705145E1
2.326110349E0,-1.637633920E0,4.386177540E0,1.154962921E1,1.246251713E1
2.331145740E0,-7.182605267E-1,5.420472622E0,1.265096188E1,1.378202663E1
2.336150612E0,4.022258818E-1,6.627150536E0,1.387679291E1,1.538331210E1
2.341186004E0,1.896207690E0,7.785943985E0,1.606030464E1,1.794853511E1
2.346221394E0,4.012681961E0,8.504204750E0,1.811931801E1,2.041403439E1
2.351256785E0,5.449203014E0,9.107542992E0,2.007298660E1,2.270607725E1
2.356261658E0,6.205770969E0,9.461885452E0,2.216073036E1,2.488246049E1
2.361297049E0,6.531382084E0,9.758766174E0,2.376963425E1,2.651203465E1
2.366332439E0,7.201758862E0,9.921571732E0,2.496673584E1,2.781439942E1
2.371367831E0,8.475474358E0,9.959878922E0,2.643198586E1,2.949038369E1
2.376372703E0,9.586383820E0,9.710882187E0,2.844311714E1,3.154696341E1
2.381408094E0,1.063025570E1,9.002198219E0,3.100012398E1,3.398602059E1
2.386443485E0,1.154005241E1,7.843404770E0,3.357628632E1,3.636012666E1
2.391478876E0,1.208592987E1,6.138733387E0,3.607583237E1,3.853854472E1
2.396483749E0,1.190397072E1,4.625597477E0,3.854664612E1,4.060719884E1
2.401519140E0,1.104205799E1,3.236960649E0,4.098873138E1,4.257324347E1
2.406554530E0,9.911994934E0,2.566584110E0,4.230075455E1,4.352227973E1
2.411559404E0,8.791508675E0,1.867477298E0,4.270298004E1,4.363854490E1
2.416594794E0,7.067683220E0,1.532289028E0,4.281790161E1,4.342433366E1
2.421630185E0,5.008669853E0,1.513135433E0,4.253059769E1,4.285123210E1
2.426665576E0,3.236960649E0,1.781286120E0,4.132392120E1,4.148876183E1
2.431670449E0,2.059013367E0,2.193088770E0,3.914998627E1,3.926538678E1
2.436705839E0,1.369483352E0,2.547430515E0,3.613329315E1,3.624885875E1
2.441741231E0,1.302445769E0,2.815581083E0,3.236003113E1,3.250839086E1
2.446776621E0,1.273715258E0,3.179499865E0,2.810792732E1,2.831584624E1
2.451781494E0,1.139639974E0,3.629609823E0,2.386540222E1,2.416671823E1
2.456816885E0,9.576807022E-1,3.782838583E0,1.957499313E1,1.996014470E1
2.461852276E0,6.991068721E-1,3.916913986E0,1.517923832E1,1.569204389E1
2.466857149E0,3.926490843E-1,3.916913986E0,1.094629002E1,1.163261164E1
2.471892540E0,1.915361285E-1,4.089296341E0,6.895300865E0,8.018990253E0
2.476927930E0,2.202665508E-1,4.041412354E0,3.016694069E0,5.047967340E0
2.481963321E0,4.884171486E-1,3.878606796E0,-5.746084079E-2,3.909660310E0
2.486968194E0,1.005564690E0,3.591302633E0,-2.691082716E0,4.598971747E0
2.492003585E0,1.647210717E0,3.265691042E0,-4.884171486E0,6.101899068E0
2.497038975E0,2.126051188E0,2.853888512E0,-6.110002518E0,7.070848892E0
2.502074367E0,2.767697096E0,2.432508945E0,-7.192182064E0,8.081134192E0
2.507079239E0,3.045424461E0,2.039859772E0,-7.489062786E0,8.337967345E0
2.512114630E0,3.141192675E0,1.474828243E0,-7.766790390E0,8.506776283E0
2.517150021E0,2.930502892E0,1.120486379E0,-7.575253963E0,8.199256645E0
2.522185412E0,2.499546528E0,8.140285611E-1,-7.182605267E0,7.648541937E0
2.527190285E0,1.733402014E0,5.458779931E-1,-6.675034523E0,6.918001966E0
2.532225676E0,1.024718285E0,4.309563041E-1,-6.081272125E0,6.182041860E0
2.537261066E0,2.011129409E-1,2.681505978E-1,-5.564124584E0,5.574211473E0
2.542296457E0,-6.895300746E-1,9.576806426E-2,-5.114014626E0,5.161179016E0
2.547301330E0,-1.398213744E0,1.340752989E-1,-4.548983097E0,4.760905909E0
2.552336721E0,-1.867477298E0,2.106897533E-1,-4.127603531E0,4.535302916E0
2.557372112E0,-2.336740971E0,1.915361285E-1,-3.514688015E0,4.224935064E0
2.562407503E0,-2.671929121E0,1.723825186E-1,-2.844311714E0,3.906280851E0
2.567412375E0,-3.141192675E0,2.298433632E-1,-2.308010340E0,3.904719083E0
2.572447767E0,-3.687070608E0,3.064578176E-1,-1.781286120E0,4.106261841E0
2.577483157E0,-4.003105164E0,3.830722570E-1,-1.599326730E0,4.327752453E0
2.582488030E0,-4.060565948E0,6.224924326E-1,-1.302445769E0,4.309531022E0
2.587523421E0,-4.127603531E0,8.427590132E-1,-1.063025594E0,4.344810361E0
2.592558812E0,-4.213795185E0,1.005564690E0,-8.619126081E-1,4.417026551E0
2.597594202E0,-4.252102375E0,1.197100878E0,-7.278373241E-1,4.476960162E0
2.602599076E0,-4.376600742E0,1.321599364E0,-7.086837292E-1,4.626390771E0
2.607634466E0,-4.386177540E0,1.513135433E0,-8.523358107E-1,4.717479050E0
2.612669857E0,-4.156333923E0,1.714248419E0,-8.236053586E-1,4.570786050E0
2.617705248E0,-3.926490784E0,1.752555609E0,-7.374141216E-1,4.362632304E0
2.622710121E0,-3.677493811E0,1.762132406E0,-5.363011956E-1,4.112990435E0
2.627745511E0,-3.572149038E0,1.867477298E0,0.000000000E0,4.030846091E0
2.632780903E0,-3.466804028E0,1.915361404E0,5.075707436E-1,3.993115016E0
2.637816293E0,-3.055001259E0,1.915361404E0,1.043871999E0,3.753839468E0
2.642821166E0,-2.375048161E0,1.886630893E0,1.742978811E0,3.498314598E0
2.647856557E0,-1.637633920E0,1.838746905E0,2.327163935E0,3.387997493E0
2.652891948E0,-1.082179189E0,1.867477298E0,3.102885485E0,3.779746233E0
2.657927338E0,-5.554547906E-1,1.924938202E0,3.687070608E0,4.196237216E0
2.662932212E0,-4.788403213E-2,1.991975784E0,4.022258759E0,4.488744360E0
2.667967602E0,4.884171486E-1,2.068590164E0,4.414907932E0,4.899900879E0
2.673002993E0,7.661445141E-1,2.212242365E0,4.797980309E0,5.338689796E0
2.678007867E0,6.129156351E-1,2.461239338E0,5.228936672E0,5.811638614E0
2.683043257E0,2.777273953E-1,2.652775526E0,5.755661011E0,6.343657003E0
2.688078648E0,-1.723825186E-1,3.055001259E0,6.368576527E0,7.065515933E0
2.693114039E0,-6.129156351E-1,3.505111217E0,7.134721279E0,7.972811170E0
2.698118912E0,-9.959878922E-1,4.108449936E0,8.063671112E0,9.104622154E0
2.703154303E0,-1.666364431E0,4.836287498E0,9.471462250E0,1.076452713E1
2.708189693E0,-2.719813108E0,5.592854977E0,1.099417400E1,1.263128149E1
2.713225084E0,-3.830722809E0,6.473921299E0,1.244984913E1,1.454595605E1
2.718229958E0,-4.884171486E0,7.374141216E0,1.375229454E1,1.635110684E1
2.723265348E0,-5.497087002E0,8.686163902E0,1.504516315E1,1.822153515E1
2.728300738E0,-5.899312973E0,1.002691650E1,1.630930138E1,2.003332872E1
2.733305612E0,-5.717353821E0,1.145386124E1,1.767878532E1,2.182701359E1
2.738341003E0,-5.075707436E0,1.258392429E1,1.930684280E1,2.359813839E1
2.743376393E0,-3.993528366E0,1.328303146E1,2.159569931E1,2.566634805E1
2.748411784E0,-3.112462282E0,1.342668343E1,2.535938454E1,2.886280709E1
2.753416657E0,-2.480392933E0,1.312980175E1,2.949656487E1,3.238196075E1
2.758452047E0,-1.551442742E0,1.194227791E1,3.297294617E1,3.510327841E1
2.763487439E0,2.106897533E-1,9.720458984E0,3.495534515E1,3.628233548E1
2.768522829E0,1.972822189E0,8.216899872E0,3.611413956E1,3.708962856E1
2.773527702E0,3.208230257E0,7.967903137E0,3.756023788E1,3.852988050E1
2.778563093E0,4.501099110E0,7.929595947E0,3.961925125E1,4.065493149E1
2.783598484E0,5.784391403E0,7.134721279E0,4.207091141E1,4.306187430E1
2.788603357E0,7.431602001E0,5.363011837E0,4.390008163E1,4.484649119E1
2.793638748E0,8.494627953E0,3.179499865E0,4.466622543E1,4.557784130E1
2.798674138E0,8.753201485E0,1.321599364E0,4.442680740E1,4.530018076E1
2.803709529E0,8.389283180E0,1.340752989E-1,4.357447052E1,4.437490878E1
2.808714403E0,7.536946774E0,-6.703764796E-1,4.188895416E1,4.256688210E1
2.813749793E0,6.665457726E0,-1.139639974E0,3.872860718E1,3.931452810E1
2.818785184E0,4.625597477E0,-1.034295082E0,3.550122452E1,3.581623739E1
2.823820575E0,3.160346270E0,-6.320692301E-1,3.186203575E1,3.202462525E1
2.828825448E0,2.509123325E0,-5.650315881E-1,2.782062340E1,2.793925638E1
2.833860839E0,2.317587137E0,-4.405331016E-1,2.373132706E1,2.384829477E1
2.838896229E0,2.145204782E0,1.340752989E-1,1.971864510E1,1.983544414E1
2.843901102E0,2.068590164E0,6.991068721E-1,1.554315758E1,1.569578170E1
2.848936494E0,2.039859772E0,1.225831270E0,1.154005241E1,1.178289013E1
2.853971884E0,1.934514999E0,1.695094824E0,7.747636795E0,8.163428854E0
2.859007274E0,1.350329757E0,2.250549555E0,4.204218388E0,4.956189666E0
2.864012148E0,5.267243981E-1,2.691082716E0,1.005564690E0,2.920706271E0
2.869047539E0,-6.703764945E-2,2.882618904E0,-1.790862918E0,3.394285755E0
2.874082929E0,-4.405331016E-1,2.930502892E0,-4.299986362E0,5.222240834E0
2.879118320E0,-6.129156351E-1,2.815581083E0,-6.205770969E0,6.842130935E0
2.884123193E0,-6.033388376E-1,2.547430515E0,-7.632715225E0,8.069185937E0
2.889158584E0,-3.830722570E-1,2.183511972E0,-8.619126320E0,8.899652095E0
2.894193975E0,2.873042040E-2,1.599326730E0,-8.925583839E0,9.067784641E0
2.899229365E0,4.501099288E-1,9.097966552E-1,-8.714894295E0,8.773808265E0
2.904234238E0,1.063025594E0,-1.532289088E-1,-8.264783859E0,8.334275898E0
2.909269630E0,1.513135433E0,-1.082179189E0,-7.546523571E0,7.772432608E0
2.914305020E0,1.714248419E0,-1.905784607E0,-6.560112476E0,7.043134126E0
2.919309893E0,1.953668594E0,-2.719813108E0,-5.506663799E0,6.444963190E0
2.924345284E0,2.154781580E0,-3.457227230E0,-4.462791920E0,6.042517315E0
2.929380675E0,2.308010340E0,-4.098873138E0,-3.313575268E0,5.753907697E0
2.934416065E0,2.202665567E0,-4.367023945E0,-1.924938202E0,5.256236374E0
2.939420939E0,2.135627985E0,-4.443638325E0,-6.320692301E-1,4.970547250E0
2.944456329E0,1.963245392E0,-4.453215122E0,4.788403511E-1,4.890270491E0
2.949491720E0,2.030282974E0,-4.280832767E0,1.426944256E0,4.948105501E0
2.954527111E0,2.001552582E0,-4.003105164E0,1.982398987E0,4.894994324E0
2.959531984E0,2.087743998E0,-3.782838583E0,2.260126352E0,4.876137188E0
2.964567375E0,2.260126352E0,-3.552995205E0,2.231395960E0,4.765613705E0
2.969602766E0,2.461239338E0,-3.256114244E0,1.963245392E0,4.529272736E0
2.974638156E0,2.528276920E0,-2.806004286E0,1.675941229E0,4.132145114E0
2.979643030E0,2.470816135E0,-2.279279947E0,1.292868972E0,3.601605147E0
2.984678420E0,2.624045134E0,-1.733402014E0,5.267243981E-1,3.188688444E0
2.989713811E0,2.911349297E0,-1.273715258E0,-3.639186621E-1,3.198553122E0
2.994718684E0,3.485957623E0,-1.015141487E0,-1.197100878E0,3.823017564E0
2.999754075E0,4.185064793E0,-8.810662031E-1,-2.030282974E0,4.734246923E0
3.004789465E0,4.759673119E0,-6.607996821E-1,-2.681505919E0,5.502873650E0
3.009824857E0,5.171475887E0,-5.841852427E-1,-3.926490784E0,6.519414477E0
3.014829729E0,5.343858242E0,-7.086837292E-1,-4.328716755E0,6.913526038E0
3.019865120E0,5.506663799E0,-8.044517636E-1,-5.123591423E0,7.564501167E0
3.024900511E0,5.650316238E0,-8.810662031E-1,-5.985504150E0,8.278200963E0
3.029935901E0,5.602431774E0,-1.063025594E0,-6.885724068E0,8.940383724E0
3.034940774E0,5.726930618E0,-1.292868972E0,-7.680599213E0,9.667515128E0
3.039976166E0,5.535394192E0,-1.541865945E0,-8.312667847E0,1.010536423E1
3.045011556E0,5.506663799E0,-1.704671621E0,-8.714894295E0,1.044885803E1
3.050046946E0,5.353435040E0,-1.896207690E0,-8.935160637E0,1.058734933E1
3.055051820E0,5.238513470E0,-2.193088770E0,-8.274360657E0,1.003577132E1
3.060087211E0,5.181052685E0,-2.403778553E0,-6.971915245E0,9.012716596E0
3.065122601E0,4.807557106E0,-2.633621931E0,-5.679046631E0,7.893043801E0
3.070157992E0,4.596867085E0,-2.863465309E0,-4.338293552E0,6.939121812E0
3.075162865E0,4.309563160E0,-3.150769472E0,-2.643198729E0,5.957027985E0
3.080198256E0,3.801992416E0,-3.074155092E0,-6.320692301E-1,4.930019004E0
3.085233647E0,3.198653460E0,-2.940079689E0,1.580173135E0,4.623029274E0
3.090238520E0,2.652775526E0,-2.815581083E0,3.916913986E0,5.505173022E0
3.095273911E0,2.039859772E0,-2.844311714E0,5.966350555E0,6.917259281E0
3.100309302E0,1.541865945E0,-2.738966703E0,7.776367188E0,8.387560779E0
3.105344692E0,1.120486379E0,-2.585737944E0,9.528923035E0,9.936896127E0
3.110349566E0,8.906430602E-1,-2.451662540E0,1.111867237E1,1.142054156E1
3.115384956E0,7.086837292E-1,-2.068590164E0,1.260307789E1,1.279135920E1
3.120420347E0,9.193734527E-1,-1.666364431E0,1.403959846E1,1.416800420E1
3.125455738E0,1.474828243E0,-1.158793569E0,1.509304714E1,1.520914175E1
3.130460611E0,2.317587137E0,-3.639186621E-1,1.601242065E1,1.618336375E1
3.135496001E0,3.399766445E0,5.363011956E-1,1.700840950E1,1.735315604E1
3.140531393E0,4.616020679E0,1.685518026E0,1.832043076E1,1.896804684E1
3.145566783E0,5.458779812E0,2.758120298E0,1.957499313E1,2.050819009E1
3.150571656E0,6.157886982E0,3.648763418E0,2.073378754E1,2.193451600E1
3.155607047E0,6.742072105E0,4.022258759E0,2.138500977E1,2.278053433E1
3.160642438E0,7.766790390E0,3.485957623E0,2.113601303E1,2.278609182E1
3.165677828E0,9.184157372E0,2.662352324E0,2.022621536E1,2.237267651E1
3.170682702E0,1.040998936E1,2.461239338E0,1.969949150E1,2.241641236E1
3.175718092E0,1.108994198E1,2.806004286E0,2.012087059E1,2.314540789E1
3.180753483E0,1.145386124E1,2.940079689E0,2.157654572E1,2.460451850E1
3.185788874E0,1.200931549E1,2.480392933E0,2.359725189E1,2.659335076E1
3.190793747E0,1.261265469E1,1.091755986E0,2.615425873E1,2.905712028E1
3.195829137E0,1.289038181E1,-3.447650373E-1,2.909433937E1,3.182391223E1
3.200864529E0,1.252646351E1,-1.216254473E0,3.169923019E1,3.410619823E1
3.205899919E0,1.155920601E1,-1.513135433E0,3.457227325E1,3.648488592E1
3.210904792E0,1.008437729E1,-1.532289028E0,3.623863602E1,3.764679688E1
3.215940183E0,8.130708694E0,-1.273715258E0,3.705266571E1,3.795564267E1
3.220975574E0,6.081272125E0,-9.385270476E-1,3.723462296E1,3.773963236E1
3.226010964E0,4.405331135E0,-2.873041928E-1,3.666001511E1,3.692487229E1
3.231015838E0,2.844311714E0,3.447650373E-1,3.532884216E1,3.544483123E1
3.236051228E0,1.752555609E0,1.101332784E0,3.342305756E1,3.348708947E1
3.241086619E0,1.072602391E0,1.934514999E0,3.092350960E1,3.100252038E1
3.246122010E0,5.937620401E-1,2.700659513E0,2.812708092E1,2.826267496E1
3.251126883E0,3.543418646E-1,3.323152065E0,2.490927505E1,2.513246668E1
3.256162274E0,1.436520964E-1,3.811569214E0,2.164358330E1,2.197711068E1
3.261197665E0,1.723825186E-1,4.060565948E0,1.935472679E1,1.977683900E1
3.266233055E0,4.309563041E-1,4.367023945E0,1.697967911E1,1.753756323E1
3.271237929E0,7.948749661E-1,4.558559895E0,1.449928570E1,1.521977596E1
3.276273319E0,1.235408068E0,4.711789131E0,1.196143150E1,1.291522487E1
3.281308710E0,1.800439715E0,5.027823448E0,9.490615845E0,1.089001290E1
3.286344101E0,2.231395960E0,5.315127850E0,6.981492043E0,9.053780599E0
3.291348974E0,2.557007313E0,5.497087002E0,4.932055473E0,7.815460517E0
3.296384364E0,2.738966703E0,5.544970989E0,2.796427488E0,6.787388936E0
3.301419755E0,2.892195702E0,5.458779812E0,1.484405041E0,6.353466088E0
3.306424628E0,3.055001259E0,5.190629482E0,9.576807022E-1,6.098591595E0
3.311460019E0,3.007117271E0,5.056553841E0,5.841852427E-1,5.912086216E0
3.316495410E0,2.719813108E0,4.759673119E0,4.979939461E-1,5.504531725E0
3.321530800E0,2.126051188E0,4.338293552E0,7.086837292E-1,4.882941452E0
3.326535673E0,1.446097851E0,3.983951569E0,1.110909581E0,4.381459710E0
3.331571065E0,5.746083856E-1,3.581725836E0,1.656787634E0,3.987966904E0
3.336606455E0,-3.734954596E-1,3.342305660E0,2.154781580E0,3.994194492E0
3.341611328E0,-1.177947283E0,3.150769472E0,2.853888512E0,4.411302269E0
3.346646719E0,-1.800439715E0,2.949656487E0,3.323152065E0,4.794308731E0
3.351682110E0,-2.442085743E0,2.700659513E0,3.734954596E0,5.216055062E0
3.356717500E0,-2.700659513E0,2.480392933E0,4.271255970E0,5.629346185E0
3.361722374E0,-3.007117271E0,2.260126352E0,4.644751072E0,5.977009113E0
3.366757764E0,-3.122039080E0,2.030282974E0,4.788403511E0,6.066134284E0
3.371793155E0,-3.122039080E0,1.915361404E0,4.865017891E0,6.089674573E0
3.376828546E0,-3.083731890E0,1.762132406E0,4.817133904E0,5.984922057E0
3.381833419E0,-2.920926094E0,1.532289028E0,4.750096321E0,5.783003888E0
3.386868810E0,-2.729389906E0,1.331176162E0,4.376600742E0,5.326934699E0
3.391904201E0,-2.470816135E0,1.149216771E0,4.137180328E0,4.953977456E0
3.396939591E0,-2.260126352E0,1.187524080E0,3.447650433E0,4.290067374E0
3.401944465E0,-2.030282974E0,1.139639974E0,2.892195702E0,3.712899703E0
3.406979855E0,-2.039859772E0,1.053448796E0,2.020706177E0,3.058436808E0
3.412015246E0,-2.059013367E0,1.110909581E0,1.340752959E0,2.696530111E0
3.417050637E0,-2.231395960E0,1.101332784E0,8.427590132E-1,2.627223741E0
3.422055510E0,-2.480392933E0,1.043871999E0,3.543418646E-1,2.714327911E0
3.427090900E0,-2.738966703E0,1.043871999E0,-2.298433632E-1,2.940142058E0
3.432126292E0,-3.083731890E0,1.101332784E0,-6.224924326E-1,3.333141626E0
3.437131164E0,-3.418920040E0,1.063025594E0,-9.768342972E-1,3.711231992E0
3.442166555E0,-3.715801001E0,9.959878922E-1,-1.244984865E0,4.043408991E0
3.447201946E0,-4.098873138E0,1.072602391E0,-1.455674648E0,4.479980533E0
3.452237337E0,-4.213795185E0,9.193734527E-1,-1.493981838E0,4.564350900E0
3.457242209E0,-4.089296341E0,7.661445141E-1,-1.407790542E0,4.392174426E0
3.462277601E0,-3.907337189E0,6.129156351E-1,-1.139639974E0,4.116033133E0
3.467312991E0,-3.591302633E0,5.554547906E-1,-9.959878922E-1,3.768020237E0
3.472348382E0,-3.361459255E0,5.267243981E-1,-9.193734527E-1,3.524499179E0
3.477353255E0,-3.169923067E0,5.267243981E-1,-7.757213712E-1,3.305691227E0
3.482388646E0,-3.007117271E0,6.416460276E-1,-3.447650373E-1,3.094079320E0
3.487424036E0,-2.853888512E0,7.661445141E-1,2.777273953E-1,2.967960505E0
3.492459428E0,-2.758120298E0,1.177947283E0,1.139639974E0,3.208358872E0
3.497464300E0,-2.758120298E0,1.704671621E0,2.049436569E0,3.835794985E0
3.502499691E0,-2.968810081E0,2.221819162E0,2.796427488E0,4.644385900E0
3.507535082E0,-3.102885485E0,2.719813108E0,3.514688015E0,5.420176521E0
3.512570473E0,-3.476380825E0,3.294421434E0,4.520252705E0,6.585675420E0
3.517575345E0,-4.156333923E0,4.098873138E0,5.468356609E0,7.998674684E0
3.522610737E0,-4.884171486E0,4.865017891E0,6.435614109E0,9.430835549E0
3.527646127E0,-5.525817394E0,5.765237808E0,7.824251175E0,1.117996115E1
3.532681518E0,-5.995080948E0,6.962338448E0,9.069235802E0,1.290992604E1
3.537686391E0,-6.224924564E0,8.255207062E0,1.020887566E1,1.452994397E1
3.542721782E0,-5.899312973E0,9.892841339E0,1.084094524E1,1.581759454E1
3.547757173E0,-4.750096321E0,1.095586681E1,1.202846909E1,1.694929206E1
3.552792564E0,-4.022258759E0,1.216254425E1,1.458547688E1,1.941242344E1
3.557797436E0,-3.476380825E0,1.305318737E1,1.797566605E1,2.248545072E1
3.562832828E0,-2.729389906E0,1.240196514E1,2.184469604E1,2.526754942E1
3.567868218E0,-9.002198577E-1,9.720458984E0,2.491885185E1,2.676278940E1
3.572903608E0,1.149216771E0,6.943184853E0,2.743755150E1,2.832574354E1
3.577908482E0,2.853888512E0,5.257667065E0,3.032974625E1,3.091409468E1
3.582943873E0,4.491522312E0,4.319139957E0,3.394977951E1,3.451689835E1
3.587979263E0,5.669469833E0,2.997540474E0,3.803907776E1,3.857589369E1
3.593014654E0,6.196194172E0,1.024718285E0,4.235821533E1,4.282127130E1
3.598019527E0,6.033388138E0,-1.541865945E0,4.618893814E1,4.660683565E1
3.603054918E0,5.075707436E0,-3.840299606E0,4.907155991E1,4.948261006E1
3.608090309E0,3.217807055E0,-5.295974255E0,5.088157272E1,5.125754645E1
3.613095182E0,1.197100878E0,-6.071695328E0,5.119760895E1,5.157027920E1
3.618130572E0,-9.002198577E-1,-6.052541733E0,5.029738998E1,5.066824544E1
3.623165964E0,-2.039859772E0,-5.870582581E0,4.802768707E1,4.842812709E1
3.628201354E0,-3.083731890E0,-5.343858242E0,4.450342178E1,4.492906380E1
3.633206227E0,-4.041412354E0,-4.395754337E0,4.042370224E1,4.086234664E1
3.638241618E0,-3.687070608E0,-3.830722809E0,3.577894974E1,3.617184224E1
3.643277009E0,-2.681505919E0,-3.361459255E0,3.114377594E1,3.143922172E1
3.648312399E0,-2.202665567E0,-2.499546528E0,2.650860214E1,2.671713787E1
3.653317273E0,-1.819593310E0,-1.436521053E0,2.157654572E1,2.170073357E1
3.658352663E0,-1.264138460E0,-6.129156351E-1,1.644337654E1,1.650328282E1
3.663388054E0,-1.034295082E0,1.819593310E-1,1.131978607E1,1.136839620E1
3.668392927E0,-9.193734527E-1,9.768342972E-1,6.636727333E0,6.770938080E0
3.673428318E0,-8.810662031E-1,1.848323703E0,2.269703150E0,3.056817062E0
3.678463709E0,-9.289502501E-1,2.652775526E0,-1.685518026E0,3.277367476E0
3.683499100E0,-8.331822157E-1,3.485957623E0,-5.439626217E0,6.514263314E0
3.688503972E0,-7.661445141E-1,3.859453201E0,-8.772355080E0,9.614393900E0
3.693539364E0,-2.106897533E-1,4.089296341E0,-1.120486355E1,1.192961449E1
3.698574754E0,-9.576806799E-3,4.625597477E0,-1.229662037E1,1.313785052E1
3.703610145E0,5.554547906E-1,4.194641590E0,-1.290953541E1,1.358527337E1
3.708615018E0,9.864110947E-1,3.667917013E0,-1.319683933E1,1.373255950E1
3.713650409E0,9.672574997E-1,3.198653460E0,-1.251688671E1,1.295528556E1
3.718685799E0,6.799532771E-1,2.834734917E0,-1.132936287E1,1.169839825E1
3.723721191E0,3.256114423E-1,2.298433542E0,-9.758766174E0,1.003106858E1
3.728726063E0,4.788403213E-2,1.771709204E0,-8.188169479E0,8.377790031E0
3.733761454E0,-1.819593310E-1,1.264138460E0,-6.675034523E0,6.796119564E0
3.738796845E0,-2.777273953E-1,5.554547906E-1,-5.353435040E0,5.389334769E0
3.743832236E0,-3.064578176E-1,-8.619125932E-2,-4.031835556E0,4.044384165E0
3.748837108E0,-2.585737705E-1,-4.692635238E-1,-2.949656487E0,2.997922954E0
3.753872500E0,1.723825186E-1,-8.140285611E-1,-2.011129379E0,2.176464935E0
3.758907890E0,4.884171486E-1,-1.072602391E0,-1.321599364E0,1.770777253E0
3.763943281E0,9.385270476E-1,-1.302445769E0,-9.385270476E-1,1.859578183E0
3.768978672E0,1.513135433E0,-1.532289028E0,-6.512228847E-1,2.249795491E0
3.773983545E0,2.154781580E0,-1.723825216E0,-3.447650373E-1,2.780920704E0
3.779018935E0,2.873042107E0,-1.877054095E0,5.746084079E-2,3.432346831E0
3.784054327E0,3.629609823E0,-1.972822189E0,5.746083856E-1,4.170883558E0
3.789089717E0,4.338293552E0,-1.944091797E0,1.225831270E0,4.909475141E0
3.794094590E0,4.730942726E0,-1.848323703E0,1.819593310E0,5.395279363E0
3.799129981E0,4.932055473E0,-1.781286120E0,2.183511972E0,5.680305975E0
3.804165372E0,4.999093056E0,-1.714248419E0,2.298433542E0,5.763017939E0
3.809200762E0,4.759673119E0,-1.541865945E0,2.317587137E0,5.513895984E0
3.814205636E0,4.242525578E0,-1.350329757E0,2.212242365E0,4.971562130E0
3.819241026E0,3.763684988E0,-1.225831270E0,1.944091797E0,4.409929694E0
3.824276417E0,3.265691042E0,-1.053448796E0,1.398213744E0,3.705333186E0
3.829281290E0,2.499546528E0,-9.576807022E-1,7.278373241E-1,2.773920032E0
3.834316681E0,2.039859772E0,-8.140285611E-1,-9.576806426E-2,2.198372559E0
3.839352072E0,1.666364431E0,-8.523358107E-1,-9.864110947E-1,2.115715860E0
3.844387462E0,1.570596337E0,-9.576807022E-1,-1.800439715E0,2.574006284E0
3.849392335E0,1.589749932E0,-1.101332784E0,-2.547430515E0,3.198380993E0
3.854427727E0,1.752555609E0,-1.130063176E0,-3.141192675E0,3.770356132E0
3.859463117E0,2.011129379E0,-1.072602391E0,-3.744531393E0,4.383677979E0
3.864498507E0,2.375048161E0,-1.149216771E0,-4.280832767E0,5.028626267E0
3.869503381E0,2.863465309E0,-1.187524080E0,-4.663905144E0,5.600148052E0
3.874538772E0,3.294421434E0,-1.283292055E0,-5.075707436E0,6.185697783E0
3.879574162E0,3.715801001E0,-1.350329757E0,-5.228936672E0,6.555329607E0
3.884609553E0,4.070142746E0,-1.292868972E0,-5.018246651E0,6.589413600E0
3.889614426E0,4.242525578E0,-1.244984865E0,-4.520252705E0,6.323108026E0
3.894649817E0,4.194641590E0,-1.168370485E0,-3.878606796E0,5.831269016E0
3.899685208E0,4.137180328E0,-1.225831270E0,-2.930502892E0,5.216010983E0
3.904720598E0,3.916913986E0,-1.168370485E0,-1.695094824E0,4.425002964E0
3.909725471E0,3.466804028E0,-1.177947283E0,-2.873041928E-1,3.672714754E0
3.914760863E0,2.987963676E0,-1.034295082E0,1.398213744E0,3.457266973E0
3.919796253E0,2.422932148E0,-6.895300746E-1,3.265691042E0,4.124413886E0
3.924831643E0,2.087743998E0,-9.576806426E-2,4.797980309E0,5.233398663E0
3.929836517E0,2.068590164E0,5.171475410E-1,6.148310184E0,6.507551381E0
3.934871908E0,2.355894566E0,9.959878922E-1,7.268796444E0,7.705688342E0
3.939907298E0,3.055001259E0,1.283292055E0,8.398859978E0,9.028882551E0
3.944942689E0,4.137180328E0,1.608903527E0,9.777919769E0,1.073836797E1
3.949947562E0,5.276820660E0,2.030282974E0,1.154962921E1,1.285926981E1
3.954982953E0,6.301538944E0,2.863465309E0,1.343626022E1,1.511429507E1
3.960018344E0,6.378153324E0,3.849876404E0,1.533246803E1,1.704661151E1
3.965053734E0,5.813121796E0,4.778826714E0,1.712333107E1,1.870395778E1
3.970058608E0,5.114014626E0,5.679046631E0,1.878969574E1,2.028441230E1
3.975093999E0,5.066130638E0,6.588842869E0,2.019748497E1,2.184071723E1
3.980129389E0,5.966350555E0,7.383718014E0,2.172019768E1,2.370408441E1
3.985164780E0,7.316680431E0,7.814674377E0,2.300349045E1,2.537249536E1
3.990169653E0,8.475474358E0,7.728483200E0,2.317587280E1,2.585892879E1
3.995205044E0,9.289502144E0,6.933608055E0,2.188300323E1,2.476359427E1
4.000240435E0,9.988609314E0,6.253654957E0,2.020706177E1,2.339243172E1
4.005275825E0,1.068771648E1,5.736507416E0,1.923980522E1,2.274433789E1
4.010280698E0,1.124317074E1,5.401319027E0,1.946007156E1,2.311444399E1
4.015316090E0,1.198058510E1,4.414907932E0,2.077209473E1,2.438248861E1
4.020351480E0,1.264138508E1,2.710236311E0,2.305137444E1,2.642945064E1
4.025356353E0,1.274672985E1,4.884171486E-1,2.621171951E1,2.915084755E1
4.030391744E0,1.208592987E1,-1.877054095E0,3.002328873E1,3.241898979E1
4.035427135E0,1.031422138E1,-3.993528366E0,3.403597260E1,3.578797091E1
4.040462525E0,7.489062786E0,-5.276820660E0,3.780923462E1,3.890333045E1
4.045467399E0,4.242525578E0,-5.583278179E0,4.041412354E1,4.101796435E1
4.050502789E0,1.015141487E0,-5.114014626E0,4.170699310E1,4.203161824E1
4.055538180E0,-1.474828243E0,-4.568136692E0,4.190810776E1,4.218213469E1
4.060573571E0,-3.265691042E0,-3.505111217E0,4.110365295E1,4.138189011E1
4.065578444E0,-4.577713490E0,-2.480392933E0,3.946602249E1,3.980797334E1
4.070613834E0,-4.989516258E0,-1.340752959E0,3.723462296E1,3.759135589E1
4.075649226E0,-4.836287498E0,-5.267243981E-1,3.403597260E1,3.438189270E1
4.080684616E0,-4.108449936E0,1.819593310E-1,3.041593933E1,3.069270004E1
4.085689489E0,-3.371036053E0,8.810662031E-1,2.618298912E1,2.641380474E1
4.090724880E0,-2.767697096E0,1.158793569E0,2.256295776E1,2.276159074E1
4.095760271E0,-2.154781580E0,1.350329757E0,1.842577553E1,1.860042144E1
4.100765143E0,-1.244984865E0,1.589749932E0,1.380017853E1,1.394712227E1
4.105800535E0,-4.405331016E-1,1.829170108E0,9.030928612E0,9.224836274E0
4.110835925E0,-7.661445439E-2,2.020706177E0,4.893748283E0,5.295082198E0
4.115871315E0,-5.746084079E-2,2.480392933E0,1.790862918E0,3.059875952E0
4.120876189E0,-9.576806799E-3,2.834734917E0,-1.130063176E0,3.051697322E0
4.125911580E0,1.532289088E-1,3.007117271E0,-2.853888512E0,4.148603743E0
4.130946971E0,1.723825186E-1,3.275267839E0,-3.830722809E0,5.042968609E0
4.135982361E0,0.000000000E0,3.313575268E0,-4.481945515E0,5.573833210E0
4.140987234E0,6.703764945E-2,3.007117271E0,-4.596867085E0,5.493490268E0
4.146022626E0,-8.619125932E-2,2.930502892E0,-3.916913986E0,4.892595559E0
4.151058016E0,-4.788403213E-2,2.978386879E0,-3.035847664E0,4.253169679E0
4.156062889E0,2.298433632E-1,2.930502892E0,-2.068590164E0,3.594404045E0
4.161098280E0,6.033388376E-1,2.844311714E0,-1.101332784E0,3.109189731E0
4.166133671E0,7.948749661E-1,2.652775526E0,-4.884171486E-1,2.812044721E0
4.171169061E0,6.991068721E-1,2.547430515E0,-9.576806426E-2,2.643354719E0
4.176173935E0,4.979939461E-1,2.480392933E0,1.436520964E-1,2.533965863E0
4.181209325E0,2.968810201E-1,2.451662540E0,-4.788403213E-2,2.470036525E0
4.186244716E0,2.585737705E-1,2.298433542E0,-5.267243981E-1,2.372150024E0
4.191280107E0,-1.436520964E-1,2.183511972E0,-6.799532771E-1,2.291439922E0
4.196284980E0,-7.278373241E-1,1.982398987E0,-6.703764796E-1,2.215639307E0
4.201320370E0,-1.407790542E0,1.934514999E0,-5.841852427E-1,2.462822545E0
4.206355762E0,-2.442085743E0,1.800439715E0,-3.256114423E-1,3.051456825E0
4.211391152E0,-3.380612850E0,1.752555609E0,0.000000000E0,3.807885818E0
4.216396025E0,-3.964797974E0,1.618480325E0,3.639186621E-1,4.297852758E0
4.221431416E0,-4.261679173E0,1.541865945E0,8.044517636E-1,4.602868953E0
4.226466807E0,-4.309563160E0,1.388636947E0,1.474828243E0,4.761907763E0
4.231471679E0,-4.577713490E0,1.120486379E0,2.097320795E0,5.158459560E0
4.236507071E0,-4.893748283E0,1.043871999E0,2.652775526E0,5.663537676E0
4.241542461E0,-5.123591423E0,9.289502501E-1,3.064578056E0,6.042001018E0
4.246577852E0,-5.516240597E0,8.810662031E-1,3.102885485E0,6.390077175E0
4.251582725E0,-5.889736176E0,8.714894056E-1,2.997540474E0,6.665863402E0
4.256618116E0,-6.627150536E0,6.129156351E-1,2.585737944E0,7.140086170E0
4.261653507E0,-7.278373241E0,5.937620401E-1,2.001552582E0,7.571887687E0
4.266688898E0,-7.718906403E0,5.363011956E-1,1.436521053E0,7.869734923E0
4.271693770E0,-7.814674377E0,4.022258818E-1,8.714894056E-1,7.873399207E0
4.276729162E0,-7.728483200E0,4.501099288E-1,2.202665508E-1,7.744712317E0
4.281764552E0,-7.316680431E0,3.543418646E-1,-9.576806426E-2,7.325881668E0
4.286769425E0,-6.560112476E0,2.298433632E-1,-2.968810201E-1,6.570847892E0
4.291804816E0,-5.621585369E0,2.011129409E-1,-7.278373241E-1,5.672073311E0
4.296840207E0,-4.616020679E0,2.681505978E-1,-9.768342972E-1,4.725860440E0
4.301875597E0,-3.485957623E0,3.064578176E-1,-1.292868972E0,3.730593400E0
4.306880471E0,-2.231395960E0,4.118026793E-1,-1.177947283E0,2.556612833E0
4.311915861E0,-7.278373241E-1,4.692635238E-1,-1.015141487E0,1.334341659E0
4.316951252E0,3.351882398E-1,6.224924326E-1,-7.182605267E-1,1.007842333E0
4.321956126E0,8.619126081E-1,8.236053586E-1,-2.106897533E-1,1.210623518E0
4.326991516E0,9.864110947E-1,1.015141487E0,1.819593310E-1,1.427104861E0
4.332026906E0,8.427590132E-1,1.570596337E0,5.554547906E-1,1.866961605E0
4.337062298E0,7.374141216E-1,2.240972757E0,6.607996821E-1,2.449978511E0
4.342067171E0,1.819593310E-1,2.882618904E0,8.140285611E-1,3.000873780E0
4.347102561E0,-5.363011956E-1,3.409343243E0,1.130063176E0,3.631567582E0
4.352137952E0,-1.599326730E0,3.907337189E0,1.704671621E0,4.553134660E0
4.357142825E0,-2.767697096E0,4.568136692E0,2.662352324E0,5.967925933E0
4.362178216E0,-3.964797974E0,5.430049419E0,4.031835556E0,7.839691169E0
4.367213607E0,-4.692635536E0,6.512228489E0,5.631162167E0,9.805097425E0
4.372248997E0,-5.094861031E0,7.479485989E0,7.335834026E0,1.164966868E1
4.377253871E0,-5.487510204E0,8.628703117E0,9.145850182E0,1.371910570E1
4.382289262E0,-6.090848923E0,9.931148529E0,1.091755962E1,1.596619115E1
4.387324652E0,-6.483498096E0,1.101332760E1,1.279461384E1,1.808400607E1
4.392329526E0,-6.081272125E0,1.181777954E1,1.497812557E1,2.002463557E1
4.397364916E0,-4.941632271E0,1.214339066E1,1.794693565E1,2.222552959E1
4.402400307E0,-3.725377798E0,1.223915863E1,2.182554245E1,2.529880920E1
4.407435698E0,-2.489969730E0,1.167412758E1,2.602976036E1,2.863622930E1
4.412440571E0,-1.292868972E0,1.038125896E1,3.007117271E1,3.183893020E1
4.417475961E0,3.256114423E-1,8.398859978E0,3.304956055E1,3.410161762E1
4.422511352E0,2.375048161E0,6.742072105E0,3.521391678E1,3.593210716E1
4.427546743E0,4.194641590E0,5.669469833E0,3.764642715E1,3.830132352E1
4.432551616E0,5.583278179E0,4.730942726E0,4.025131989E1,4.091116677E1
4.437587007E0,6.751648903E0,3.208230257E0,4.251144409E1,4.316364654E1
4.442622397E0,7.326257229E0,1.235408068E0,4.446511459E1,4.508155603E1
4.447657788E0,6.943184853E0,-7.374141216E-1,4.629428482E1,4.681786414E1
4.452662662E0,5.592854977E0,-2.767697096E0,4.787445831E1,4.827943592E1
4.457698052E0,3.639186621E0,-4.520252705E0,4.915774918E1,4.949909765E1
4.462733442E0,9.289502501E-1,-5.564124584E0,4.984727859E1,5.016546236E1
4.467738316E0,-1.551442742E0,-6.004657745E0,4.965574265E1,5.004153941E1
4.472773707E0,-3.572149038E0,-6.234501362E0,4.836287308E1,4.889372913E1
4.477809097E0,-4.654327869E0,-6.358999729E0,4.613147736E1,4.679970992E1
4.482844488E0,-4.979939461E0,-6.378153324E0,4.305732346E1,4.381111434E1
4.487849361E0,-4.750096321E0,-6.148310184E0,3.904463959E1,3.981016219E1
4.492884752E0,-4.223371983E0,-5.659893036E0,3.465846252E1,3.537061329E1
4.497920143E0,-3.524264812E0,-4.999093056E0,2.975513840E1,3.037728814E1
4.502955533E0,-2.576161146E0,-4.319139957E0,2.428678131E1,2.480200239E1
4.507960406E0,-1.915361404E0,-3.610456228E0,1.880884933E1,1.924777433E1
4.512995798E0,-1.618480325E0,-2.700659513E0,1.351287460E1,1.387482686E1
4.518031188E0,-1.656787634E0,-1.714248419E0,8.121131897E0,8.463827514E0
4.523036062E0,-1.982398987E0,-6.991068721E-1,2.911349297E0,3.590906694E0
4.528071452E0,-2.652775526E0,6.607996821E-1,-1.714248419E0,3.226843946E0
4.533106843E0,-3.055001259E0,1.570596337E0,-5.564124584E0,6.539058643E0
4.538142234E0,-2.528276920E0,1.963245392E0,-8.283937454E0,8.880886014E0
4.543147107E0,-5.841852427E-1,1.953668594E0,-9.835380554E0,1.004454101E1
4.548182497E0,-4.309563041E-1,2.738966703E0,-1.064940929E1,1.100443457E1
4.553217889E0,-1.723825216E0,3.332728863E0,-1.091755962E1,1.154433901E1
4.558253279E0,-1.072602391E0,2.451662540E0,-1.158793640E1,1.189291365E1
4.563258152E0,9.097966552E-1,1.254561663E0,-1.192312431E1,1.202341667E1
4.568293543E0,2.470816135E0,9.002198577E-1,-1.133893967E1,1.163988320E1
4.573328934E0,2.853888512E0,1.168370485E0,-1.028549004E1,1.073783379E1
4.578333806E0,2.221819162E0,1.800439715E0,-9.155426979E0,9.591658184E0
4.583369198E0,1.819593310E0,1.838746905E0,-8.647856712E0,9.026479697E0
4.588404588E0,1.915361404E0,1.340752959E0,-8.628703117E0,8.939840339E0
4.593439979E0,2.327163935E0,4.596867263E-1,-8.714894295E0,9.031964705E0
4.598444852E0,2.633621931E0,-2.298433632E-1,-8.695740700E0,9.088712712E0
4.603480243E0,2.547430515E0,-7.086837292E-1,-8.207323074E0,8.622748222E0
4.608515633E0,2.317587137E0,-1.101332784E0,-7.354987621E0,7.789736000E0
4.613551025E0,2.193088770E0,-1.426944256E0,-6.320692539E0,6.840830537E0
4.618555897E0,2.298433542E0,-1.800439715E0,-5.171475887E0,5.938732421E0
4.623591288E0,2.269703150E0,-2.078166962E0,-3.849876404E0,4.928679198E0
4.628626679E0,1.781286120E0,-2.145204782E0,-1.628057122E0,3.228847131E0
4.633631552E0,1.599326730E0,-1.790862918E0,-4.405331016E-1,2.441127894E0
4.638666942E0,1.934514999E0,-1.675941229E0,2.106897533E-1,2.568173954E0
4.643702334E0,2.403778553E0,-1.714248419E0,5.363011956E-1,3.000736234E0
4.648737724E0,2.786850691E0,-1.733402014E0,8.906430602E-1,3.400656462E0
4.653742598E0,2.662352324E0,-1.599326730E0,1.158793569E0,3.314931133E0
4.658777988E0,2.394201756E0,-1.331176162E0,1.398213744E0,3.075586724E0
4.663813379E0,2.193088770E0,-9.481038451E-1,1.446097851E0,2.792801147E0
4.668848770E0,2.288856745E0,-7.086837292E-1,1.532289028E0,2.844118052E0
4.673853643E0,2.432508945E0,-5.937620401E-1,1.493981838E0,2.915756311E0
4.678889033E0,2.624045134E0,-5.841852427E-1,1.369483352E0,3.017013409E0
4.683924425E0,2.796427488E0,-6.607996821E-1,1.206677675E0,3.116525939E0
4.688959815E0,2.930502892E0,-6.607996821E-1,7.278373241E-1,3.090995080E0
4.693964688E0,2.997540474E0,-6.320692301E-1,2.873041928E-1,3.076898455E0
4.699000079E0,2.997540474E0,-6.895300746E-1,-2.011129409E-1,3.082393069E0
4.704035470E0,2.815581083E0,-6.129156351E-1,-5.937620401E-1,2.942059784E0
4.709070860E0,2.489969730E0,-4.692635238E-1,-9.768342972E-1,2.715577794E0
4.714075734E0,2.317587137E0,-2.202665508E-1,-1.206677675E0,2.622174385E0
4.719111124E0,2.375048161E0,-7.661445439E-2,-1.522712231E0,2.822299785E0
4.724146515E0,2.413355350E0,-4.788403213E-2,-1.752555609E0,2.982956267E0
4.729181906E0,2.557007313E0,-5.746084079E-2,-1.857900500E0,3.161231155E0
4.734186779E0,3.007117271E0,-5.650315881E-1,-1.551442742E0,3.430596094E0
4.739222169E0,2.375048161E0,1.436520964E-1,-1.302445769E0,2.712536575E0
4.744257561E0,2.106897593E0,4.884171486E-1,-6.416460276E-1,2.255942907E0
4.749262433E0,2.403778553E0,7.278373241E-1,3.543418646E-1,2.536425962E0
4.754297824E0,2.633621931E0,7.948749661E-1,1.484405041E0,3.125899713E0
4.759333215E0,2.911349297E0,1.101332784E0,3.074155092E0,4.374850644E0
4.764368606E0,3.169923067E0,1.455674648E0,4.989516258E0,6.087912074E0
4.769373478E0,3.371036053E0,1.733402014E0,6.933608055E0,7.902119163E0
4.774408870E0,3.514688015E0,1.848323703E0,9.097966194E0,9.926848504E0
4.779444260E0,3.629609823E0,1.896207690E0,1.142513084E1,1.213685651E1
4.784479651E0,3.878606796E0,1.877054095E0,1.353202820E1,1.420150379E1
4.789484524E0,4.501099110E0,1.905784607E0,1.595495987E1,1.668690063E1
4.794519915E0,5.746084213E0,1.848323703E0,1.779370689E1,1.878961919E1
4.799555305E0,6.751648903E0,1.905784607E0,1.945049477E1,2.067700473E1
4.804590697E0,7.345410824E0,2.355894566E0,2.101151466E1,2.238278463E1
4.809595569E0,7.192182064E0,3.208230257E0,2.264914894E1,2.397924461E1
4.814630961E0,6.598419666E0,4.156333923E0,2.457408714E1,2.578177676E1
4.819666351E0,5.573701382E0,5.056553841E0,2.626918030E1,2.732589829E1
4.824671224E0,4.616020679E0,5.861005783E0,2.772485542E1,2.871108922E1
4.829706615E0,3.744531393E0,6.952761650E0,2.900814819E1,3.006384991E1
4.834742006E0,3.696647406E0,7.900865555E0,3.016694069E1,3.140275767E1
4.839777396E0,3.064578056E0,7.307103634E0,3.053086090E1,3.154233456E1
4.844782270E0,2.806004286E0,6.569689274E0,3.001371193E1,3.085218600E1
4.849817660E0,3.093308687E0,6.406883717E0,2.939122009E1,3.024004855E1
4.854853051E0,4.108449936E0,6.943184853E0,2.860592270E1,2.972181001E1
4.859888442E0,5.679046631E0,7.144298077E0,2.843353844E1,2.986232867E1
4.864893315E0,7.173028469E0,6.445190907E0,2.815581131E1,2.976142694E1
4.869928705E0,8.341399193E0,5.152322292E0,2.821327209E1,2.986827896E1
4.874964097E0,8.638279915E0,3.897760391E0,2.810792732E1,2.966256891E1
4.879968970E0,8.015787125E0,3.016694069E0,2.801215935E1,2.929222350E1
4.885004360E0,6.675034523E0,2.604891539E0,2.751416588E1,2.843186364E1
4.890039751E0,4.960785866E0,2.250549555E0,2.668098450E1,2.723140289E1
4.895075142E0,3.610456228E0,2.126051188E0,2.498588943E1,2.533476186E1
4.900080015E0,2.499546528E0,2.700659513E0,2.302264404E1,2.331487580E1
4.905115406E0,1.484405041E0,3.323152065E0,2.125093460E1,2.156035759E1
4.910150796E0,5.746084079E-2,3.888183594E0,1.977610588E1,2.015479192E1
4.915186187E0,-1.656787634E0,4.635174274E0,1.816720200E1,1.882224785E1
4.920191061E0,-3.380612850E0,5.276820660E0,1.643379974E1,1.758815378E1
4.925226451E0,-3.907337189E0,6.320692539E0,1.556231117E1,1.724540423E1
4.930261841E0,-3.600879431E0,7.393294811E0,1.425028896E1,1.645289872E1
4.935297233E0,-2.825158119E0,7.814674377E0,1.210508347E1,1.468276880E1
4.940302106E0,-1.321599364E0,7.920019150E0,9.672574997E0,1.257107932E1
4.945337497E0,5.075707436E-1,7.623138428E0,6.933608055E0,1.031720835E1
4.950372887E0,2.202665567E0,7.297526836E0,4.606443882E0,8.906456016E0
4.955408278E0,3.878606796E0,7.058106422E0,2.106897593E0,8.324630587E0
4.960413152E0,4.951209068E0,6.703764915E0,3.830722570E-1,8.342762111E0
4.965448542E0,5.880159378E0,6.234501362E0,-7.182605267E-1,8.600068588E0
4.970483932E0,6.617573261E0,5.592854977E0,-1.359906554E0,8.770498760E0
4.975488806E0,6.895300865E0,5.008669853E0,-1.991975784E0,8.752137753E0
4.980524197E0,6.560112476E0,3.964797974E0,-1.407790542E0,7.793367237E0
4.985559587E0,6.205770969E0,3.083731890E0,-1.340752959E0,7.058230245E0
4.990594978E0,5.765237808E0,2.240972757E0,-1.350329757E0,6.331138629E0
4.995599851E0,5.305551052E0,1.628057122E0,-4.118026793E-1,5.564981887E0
5.000635241E0,4.970362663E0,9.672574997E-1,9.576806799E-3,5.063613709E0
5.005670633E0,4.654327869E0,5.746083856E-1,9.193734527E-1,4.778931916E0
5.010706023E0,3.964797974E0,2.489969730E-1,1.810016513E0,4.365521990E0
5.015710896E0,3.505111217E0,-1.340752989E-1,2.116474390E0,4.096735856E0
5.020746287E0,2.738966703E0,-5.650315881E-1,2.662352324E0,3.861258758E0
5.025781678E0,1.781286120E0,-1.015141487E0,3.198653460E0,3.799325787E0
5.030817068E0,1.063025594E0,-1.292868972E0,3.131615877E0,3.550852235E0
5.035821942E0,1.053448766E-1,-1.455674648E0,2.959233284E0,3.299567828E0
5.040857332E0,-7.182605267E-1,-1.618480325E0,2.882618904E0,3.383026528E0
5.045892723E0,-1.379060149E0,-1.580173135E0,2.375048161E0,3.168534014E0
5.050928114E0,-1.905784607E0,-1.695094824E0,2.001552582E0,3.242155790E0
5.055932987E0,-2.365471363E0,-1.800439715E0,1.723825216E0,3.436366004E0
5.060968377E0,-1.503558636E0,-1.407790542E0,1.110909581E0,2.340231373E0
5.066003769E0,-2.269703150E0,-2.260126352E0,6.799532771E-1,3.274455676E0
5.071008642E0,-3.543418407E0,-3.045424461E0,2.968810201E-1,4.681726444E0
5.076044033E0,-5.008669853E0,-3.399766445E0,1.436520964E-1,6.055230921E0
5.081079423E0,-6.119579315E0,-3.198653460E0,-4.788403213E-2,6.905282603E0
5.086114814E0,-6.991068840E0,-2.547430515E0,1.340752989E-1,7.441936706E0
5.091119688E0,-7.220912457E0,-2.001552582E0,2.585737705E-1,7.497642952E0
5.096155078E0,-7.220912457E0,-1.771709204E0,4.213795066E-1,7.447018927E0
5.101190468E0,-7.096413612E0,-1.848323703E0,2.681505978E-1,7.338071369E0
5.106225860E0,-6.856993675E0,-1.810016513E0,-2.394201756E-1,7.095903329E0
5.111230733E0,-6.320692539E0,-1.810016513E0,-5.458779931E-1,6.597370441E0
5.116266123E0,-5.937620163E0,-1.608903527E0,-8.523358107E-1,6.210505623E0
5.121301514E0,-5.477933407E0,-1.216254473E0,-1.063025594E0,5.711134105E0
5.126336905E0,-5.094861031E0,-9.193734527E-1,-1.149216771E0,5.303164683E0
5.131341778E0,-4.501099110E0,-6.512228847E-1,-1.244984865E0,4.715291269E0
5.136377169E0,-4.012681961E0,-4.884171486E-1,-1.359906554E0,4.264916607E0
5.141412559E0,-3.562572241E0,-2.873041928E-1,-1.407790542E0,3.841398037E0
5.146417432E0,-3.236960649E0,-1.628057212E-1,-1.407790542E0,3.533595076E0
5.151452824E0,-3.016694069E0,5.746084079E-2,-1.254561663E0,3.267670396E0
5.156488214E0,-2.614468336E0,4.213795066E-1,-9.672574997E-1,2.819324820E0
5.161523604E0,-2.145204782E0,8.140285611E-1,-5.841852427E-1,2.367660967E0
5.166528478E0,-1.580173135E0,1.139639974E0,-1.436520964E-1,1.953551210E0
5.171563869E0,-1.053448796E0,1.608903527E0,6.416460276E-1,2.027322015E0
5.176599259E0,-8.236053586E-1,1.972822189E0,1.589749932E0,2.664143019E0
5.181604133E0,-8.523358107E-1,2.442085743E0,2.710236311E0,3.746416951E0
5.186639523E0,-1.043871999E0,3.016694069E0,3.763684988E0,4.935122749E0
5.191674914E0,-1.561019540E0,3.677493811E0,4.884171486E0,6.309982079E0
5.196710305E0,-2.298433542E0,4.395754337E0,6.062118530E0,7.832926274E0
5.201715178E0,-3.303998232E0,5.046977043E0,7.192182064E0,9.387005083E0
5.206750568E0,-4.606443882E0,5.861005783E0,8.255207062E0,1.112291138E1
5.211785960E0,-5.899312973E0,6.732495308E0,9.279925346E0,1.289361862E1
5.216821350E0,-7.019799232E0,7.651868820E0,1.033337498E1,1.464948177E1
5.221826224E0,-7.929595947E0,8.523358345E0,1.177947235E1,1.656146425E1
5.226861614E0,-8.312667847E0,9.394847870E0,1.367568016E1,1.855768954E1
5.231897005E0,-8.303091049E0,1.036210537E1,1.595495987E1,2.075753581E1
5.236901878E0,-7.766790390E0,1.098459721E1,1.894292450E1,2.323400089E1
5.241937269E0,-6.952761650E0,1.138682365E1,2.262999535E1,2.627008445E1
5.246972659E0,-5.956773758E0,1.140597725E1,2.673844528E1,2.967362342E1
5.252008051E0,-4.769249916E0,1.103248119E1,3.083731842E1,3.309685171E1
5.257012923E0,-3.217807055E0,9.749189377E0,3.454354095E1,3.603688662E1
5.262048314E0,-1.043871999E0,8.054094315E0,3.755065918E1,3.841887699E1
5.267083705E0,1.407790542E0,6.694188118E0,3.996401596E1,4.054524140E1
5.272119095E0,4.050989151E0,5.985504150E0,4.272213364E1,4.332917580E1
5.277123968E0,7.115567684E0,4.826710701E0,4.488649368E1,4.570257930E1
5.282159360E0,8.887276649E0,3.179499865E0,4.663904953E1,4.758459674E1
5.287194750E0,9.346963882E0,1.283292055E0,4.802768707E1,4.894559529E1
5.292230140E0,8.197746277E0,-4.118026793E-1,4.900452042E1,4.968717789E1
5.297235014E0,5.688623428E0,-1.704671621E0,4.916732788E1,4.952466530E1
5.302270405E0,2.489969730E0,-2.308010340E0,4.835329819E1,4.847234579E1
5.307305795E0,-7.565677166E-1,-2.557007313E0,4.682100677E1,4.689688003E1
5.312341186E0,-3.371036053E0,-2.499546528E0,4.458003616E1,4.477712855E1
5.317346059E0,-4.778826714E0,-2.212242365E0,4.186022186E1,4.219015733E1
5.322381450E0,-5.066130638E0,-1.991975784E0,3.859453201E1,3.897655126E1
5.327416841E0,-4.587290287E0,-2.030282974E0,3.472550201E1,3.508597685E1
5.332452231E0,-3.390189648E0,-1.848323703E0,3.061705208E1,3.085957816E1
5.337457104E0,-1.944091797E0,-1.474828243E0,2.629791069E1,2.641088257E1
5.342492496E0,-4.596867263E-1,-9.959878922E-1,2.156696892E1,2.159484781E1
5.347527886E0,3.830722570E-1,-5.841852427E-1,1.651041412E1,1.652518657E1
5.352532760E0,9.289502501E-1,-9.576806799E-3,1.154005241E1,1.157738528E1
5.357568150E0,8.906430602E-1,6.224924326E-1,6.694188118E0,6.781806282E0
5.362603541E0,6.416460276E-1,1.158793569E0,2.049436569E0,2.440225893E0
5.367638932E0,1.244984865E-1,1.829170108E0,-2.106897593E0,2.792916150E0
5.372643805E0,-3.447650373E-1,2.298433542E0,-5.363011837E0,5.844959850E0
5.377679195E0,-7.278373241E-1,2.537853718E0,-7.967903137E0,8.393922150E0
5.382714587E0,-7.565677166E-1,2.873042107E0,-1.036210537E1,1.077961007E1
5.387749977E0,-6.129156351E-1,2.758120298E0,-1.165497398E1,1.199255234E1
5.392754850E0,-1.139639974E0,2.288856745E0,-1.191354752E1,1.218483725E1
5.397790241E0,-1.302445769E0,1.723825216E0,-1.194227791E1,1.213614189E1
5.402825632E0,-8.236053586E-1,1.321599364E0,-1.126232433E1,1.136947229E1
5.407830504E0,1.723825186E-1,1.187524080E0,-1.013226128E1,1.020307051E1
5.412865896E0,1.398213744E0,8.714894056E-1,-8.781931877E0,8.935145380E0
5.417901286E0,2.480392933E0,3.734954596E-1,-7.307103634E0,7.725646347E0
5.422936677E0,3.399766445E0,-2.777273953E-1,-5.947196960E0,6.855997088E0
5.427941550E0,3.859453201E0,-9.959878922E-1,-4.529829502E0,6.033798655E0
5.432976941E0,3.907337189E0,-1.589749932E0,-3.198653460E0,5.293956243E0
5.438012331E0,3.974374771E0,-2.164358377E0,-2.279279947E0,5.067072043E0
5.443047723E0,4.127603531E0,-2.595314741E0,-1.589749932E0,5.128359812E0
5.448052595E0,4.424484730E0,-3.179499865E0,-1.235408068E0,5.586726914E0
5.453087986E0,4.673481941E0,-3.620033026E0,-8.906430602E-1,5.978237000E0
5.458123377E0,4.797980309E0,-4.003105164E0,-6.129156351E-1,6.278624974E0
5.463128250E0,4.692635536E0,-4.070142746E0,-4.213795066E-1,6.226110418E0
5.468163640E0,4.424484730E0,-4.031835556E0,-3.734954596E-1,5.997604683E0
5.473199032E0,3.821146011E0,-3.869029999E0,-4.979939461E-1,5.460636221E0
5.478234422E0,3.380612850E0,-3.629609823E0,-8.044517636E-1,5.024913268E0
5.483239295E0,2.260126352E0,-3.495534420E0,-2.777273893E0,5.004016616E0
5.488274686E0,2.298433542E0,-3.112462282E0,-2.738966703E0,4.740480652E0
5.493310077E0,2.317587137E0,-2.547430515E0,-2.489969730E0,4.249771950E0
5.498314951E0,1.599326730E0,-1.896207690E0,-3.495534420E0,4.286281661E0
5.503350341E0,1.465251446E0,-1.168370485E0,-3.916913986E0,4.342149993E0
5.508385731E0,1.790862918E0,-5.650315881E-1,-3.849876404E0,4.283456433E0
5.513421123E0,2.097320795E0,-2.011129409E-1,-4.405331135E0,4.883251308E0
5.518425996E0,2.940079689E0,-1.340752989E-1,-4.941632271E0,5.751675779E0
5.523461386E0,3.620033026E0,-1.915361360E-2,-5.133168221E0,6.281275503E0
5.528496777E0,3.361459255E0,6.416460276E-1,-4.979939461E0,6.042426250E0
5.533501650E0,4.098873138E0,4.788403511E-1,-5.152322292E0,6.601247919E0
5.538537041E0,4.587290287E0,1.819593310E-1,-5.315127850E0,7.023312996E0
5.543572432E0,4.941632271E0,-1.915361285E-1,-5.334281445E0,7.273992997E0
5.548607822E0,5.085284233E0,-3.830722570E-1,-5.104437828E0,7.215410288E0
5.553612695E0,4.989516258E0,-5.075707436E-1,-4.663905144E0,6.848716065E0
5.558648087E0,4.797980309E0,-5.554547906E-1,-4.118026733E0,6.347226894E0
5.563683477E0,4.520252705E0,-6.991068721E-1,-3.466804028E0,5.739352324E0
5.568718867E0,4.424484730E0,-9.864110947E-1,-3.074155092E0,5.477180068E0
5.573723741E0,4.213795185E0,-1.177947283E0,-2.461239338E0,5.020092503E0
5.578759131E0,4.156333923E0,-1.302445769E0,-1.963245392E0,4.777636354E0
5.583794522E0,4.165910721E0,-1.340752959E0,-1.225831270E0,4.544787447E0
5.588829913E0,4.089296341E0,-1.244984865E0,-5.746084079E-2,4.275001009E0
5.593834786E0,3.620033026E0,-9.097966552E-1,1.321599364E0,3.959670938E0
5.598870176E0,2.930502892E0,-5.554547906E-1,2.815581083E0,4.101691609E0
5.603905568E0,2.308010340E0,-1.244984865E-1,4.462791920E0,5.025825636E0
5.608910441E0,2.097320795E0,3.926490843E-1,5.995080948E0,6.363483589E0
5.613945831E0,2.518700123E0,7.374141216E-1,7.527369976E0,7.971758191E0
5.618981222E0,2.901772499E0,1.091755986E0,9.816226959E0,1.029419868E1
5.624016613E0,3.035847664E0,1.369483352E0,1.212423706E1,1.257334403E1
5.629021487E0,3.026270866E0,1.867477298E0,1.454716969E1,1.497551110E1
5.634056877E0,3.179499865E0,2.403778553E0,1.689348793E1,1.735734154E1
5.639092267E0,3.744531393E0,3.055001259E0,1.918234444E1,1.978173112E1
5.644127659E0,4.616020679E0,3.639186621E0,2.139458656E1,2.218737615E1
5.649132532E0,5.094861031E0,4.328716755E0,2.375048065E1,2.467348230E1
5.654167922E0,5.142745018E0,5.257667065E0,2.597229958E1,2.699354061E1
5.659203313E0,4.941632271E0,5.908889771E0,2.791639137E1,2.895962042E1
5.664208186E0,5.276820660E0,5.995080948E0,2.891238022E1,2.999519231E1
5.669243577E0,6.397306919E0,5.707777023E0,2.899857140E1,3.023940141E1
5.674278968E0,7.881711960E0,5.937620163E0,2.910391617E1,3.073133015E1
5.679314358E0,9.107542992E0,6.751648903E0,2.938164330E1,3.149306376E1
5.684319231E0,1.016099167E1,7.316680431E0,2.995625114E1,3.246777705E1
5.689354623E0,1.160709000E1,7.096413612E0,3.050213051E1,3.339855670E1
5.694390013E0,1.290953541E1,5.870582581E0,3.100012398E1,3.408999165E1
5.699394886E0,1.339795303E1,4.386177540E0,3.116292953E1,3.420338983E1
5.704430277E0,1.261265469E1,3.351882458E0,3.148854065E1,3.408580887E1
5.709465668E0,1.041956615E1,2.978386879E0,3.222595596E1,3.399927036E1
5.714501058E0,7.489062786E0,2.882618904E0,3.270479584E1,3.367490496E1
5.719505932E0,4.472368717E0,3.122039080E0,3.285802460E1,3.330764162E1
5.724541322E0,1.723825216E0,3.485957623E0,3.240791321E1,3.264040920E1
5.729576713E0,-4.692635238E-1,3.926490784E0,3.219722366E1,3.243915458E1
5.734612104E0,-1.829170108E0,4.376600742E0,3.170880699E1,3.206164279E1
5.739616977E0,-2.327163935E0,4.893748283E0,3.095223999E1,3.142301107E1
5.744652367E0,-2.011129379E0,5.468356609E0,2.959233284E1,3.016046631E1
5.749687759E0,-8.427590132E-1,5.832275391E0,2.784935379E1,2.846598295E1
5.754723149E0,7.278373241E-1,6.291962147E0,2.602976036E1,2.678930681E1
5.759728023E0,3.227383852E0,7.287950039E0,2.436339569E1,2.563406468E1
5.764763413E0,4.577713490E0,6.971915245E0,2.055182648E1,2.217973477E1
5.769798804E0,5.181052685E0,6.981492043E0,1.651999092E1,1.866801109E1
5.774803677E0,5.286397457E0,7.287950039E0,1.199973869E1,1.500179798E1
5.779839068E0,4.740519524E0,7.287950039E0,7.249642849E0,1.132007343E1
5.784874458E0,4.587290287E0,6.904877663E0,2.949656487E0,8.798922724E0
5.789909850E0,3.964797974E0,6.627150536E0,-9.864110947E-1,7.785355100E0
5.794914722E0,3.428496838E0,6.253654957E0,-3.821146011E0,8.090979405E0
5.799950113E0,2.700659513E0,6.081272125E0,-5.363011837E0,8.546187947E0
5.804985504E0,2.020706177E0,5.861005783E0,-6.540958881E0,9.012146544E0
5.809990377E0,1.503558636E0,5.468356609E0,-6.713341713E0,8.788206275E0
5.815025767E0,1.120486379E0,4.941632271E0,-6.579266071E0,8.304333884E0
5.820061159E0,6.224924326E-1,4.290409565E0,-6.167463779E0,7.538747942E0
5.825096549E0,1.915361285E-1,3.763684988E0,-5.372588634E0,6.562523860E0
5.830101422E0,-3.830722570E-1,3.265691042E0,-4.673481941E0,5.714272989E0
5.835136813E0,-8.044517636E-1,2.844311714E0,-3.859453201E0,4.861340430E0
5.840172204E0,-1.340752959E0,2.394201756E0,-3.313575268E0,4.302278652E0
5.845207594E0,-1.685518026E0,1.963245392E0,-2.671929121E0,3.719476941E0
5.850212468E0,-2.020706177E0,1.417367458E0,-2.231395960E0,3.327358095E0
5.855247858E0,-2.250549555E0,9.576807022E-1,-1.666364431E0,2.959543215E0
5.860283249E0,-2.614468336E0,4.788403511E-1,-1.063025594E0,2.862648455E0
5.865318640E0,-3.083731890E0,9.576806426E-2,-3.064578176E-1,3.100401633E0
5.870323513E0,-3.265691042E0,-3.351882398E-1,7.661445439E-2,3.283741603E0
5.875358903E0,-3.380612850E0,-7.757213712E-1,6.129156351E-1,3.522208464E0
5.880394295E0,-3.629609823E0,-1.082179189E0,1.177947283E0,3.966451697E0
5.885399167E0,-3.744531393E0,-1.302445769E0,1.331176162E0,4.182094010E0
5.890434558E0,-3.687070608E0,-1.225831270E0,1.168370485E0,4.057368798E0
5.895469949E0,-3.418920040E0,-1.158793569E0,1.187524080E0,3.800267124E0
5.900505340E0,-3.600879431E0,-9.672574997E-1,1.043871999E0,3.871897273E0
5.905510213E0,-3.878606796E0,-8.236053586E-1,4.118026793E-1,3.986414167E0
5.910545604E0,-4.089296341E0,-6.991068721E-1,-8.619125932E-2,4.149520926E0
5.915580994E0,-4.405331135E0,-6.033388376E-1,-8.331822157E-1,4.523842699E0
5.920616386E0,-4.932055473E0,-3.830722570E-1,-1.493981838E0,5.167581376E0
5.925621258E0,-5.516240597E0,-2.106897533E-1,-2.068590164E0,5.895113719E0
5.930656649E0,-5.784391403E0,1.819593310E-1,-2.825158119E0,6.440016421E0
5.935692040E0,-6.023811340E0,3.543418646E-1,-3.236960649E0,6.847610931E0
5.940727431E0,-5.956773758E0,6.033388376E-1,-3.466804028E0,6.918518738E0
5.945732303E0,-5.908889771E0,7.374141216E-1,-3.485957623E0,6.900047714E0
5.950767695E0,-5.870582581E0,1.005564690E0,-3.265691042E0,6.792616444E0
5.955803085E0,-5.497087002E0,1.149216771E0,-2.806004286E0,6.277923601E0
5.960838476E0,-5.114014626E0,1.398213744E0,-2.135627985E0,5.715684924E0
5.965843349E0,-4.644751072E0,1.551442742E0,-1.398213744E0,5.092709375E0
5.970878740E0,-3.993528366E0,1.714248419E0,-5.171475410E-1,4.376569208E0
5.975914130E0,-3.371036053E0,1.934514999E0,4.788403511E-1,3.916059299E0
5.980919004E0,-2.949656487E0,2.145204782E0,1.857900500E0,4.093185949E0
5.985954394E0,-2.940079689E0,2.355894566E0,3.150769472E0,4.911380259E0
5.990989785E0,-2.968810081E0,2.633621931E0,4.472368717E0,5.979287559E0
5.996025176E0,-2.968810081E0,2.825158119E0,5.861005783E0,7.151694938E0
6.001030049E0,-3.007117271E0,3.141192675E0,7.086836815E0,8.314631786E0
6.006065439E0,-2.882618904E0,3.610456228E0,8.245630264E0,9.451735522E0
6.011100831E0,-2.949656487E0,4.213795185E0,9.500192642E0,1.080324967E1
6.016136221E0,-3.227383852E0,4.970362663E0,1.064940929E1,1.218730609E1
6.021141094E0,-3.476380825E0,5.755661011E0,1.186566353E1,1.363843203E1
6.026176485E0,-3.945644379E0,6.703764915E0,1.291911221E1,1.508018680E1
6.031211876E0,-4.625597477E0,7.738059998E0,1.380975533E1,1.649190913E1
6.036216750E0,-5.257667065E0,9.069235802E0,1.480574322E1,1.814122745E1
6.041252140E0,-5.650316238E0,1.039083576E1,1.598369026E1,1.988401106E1
6.046287530E0,-5.516240597E0,1.140597725E1,1.758301735E1,2.167228014E1
6.051322922E0,-4.491522312E0,1.218169785E1,1.941218758E1,2.335381257E1
6.056327795E0,-2.767697096E0,1.279461384E1,2.165316010E1,2.530260130E1
6.061363185E0,-5.267243981E-1,1.287122822E1,2.435381889E1,2.755094280E1
6.066398576E0,1.829170108E0,1.262223148E1,2.735136032E1,3.017885853E1
6.071433967E0,4.012681961E0,1.169328117E1,3.041593933E1,3.283235914E1
6.076438840E0,5.726930618E0,1.008437729E1,3.331771088E1,3.527835395E1
6.081474231E0,6.722918510E0,8.293514252E0,3.562572098E1,3.719102052E1
6.086509621E0,6.971915245E0,6.933608055E0,3.763685226E1,3.890006647E1
6.091514494E0,6.981492043E0,6.196194172E0,3.992570877E1,4.100239352E1
6.096549886E0,6.914454460E0,5.353435040E0,4.232948685E1,4.322330857E1
6.101585276E0,7.058106422E0,4.012681961E0,4.460876465E1,4.534159642E1
6.106620666E0,7.201758862E0,2.068590164E0,4.625597763E1,4.685893578E1
6.111625540E0,7.000645638E0,-3.830722719E-2,4.723281097E1,4.774881087E1
6.116660931E0,6.349422932E0,-1.723825216E0,4.779784393E1,4.824852982E1
6.121696321E0,5.746084213E0,-3.351882458E0,4.755842209E1,4.802141305E1
6.126731712E0,3.830722809E0,-3.878606796E0,4.616978455E1,4.649050476E1
6.131736585E0,1.762132406E0,-3.964797974E0,4.391923523E1,4.413302569E1
6.136771976E0,1.015141487E0,-4.548983097E0,4.102703857E1,4.129093912E1
6.141807367E0,9.193734527E-1,-4.932055473E0,3.775177383E1,3.808368215E1
6.146842757E0,1.130063176E0,-4.912901878E0,3.409343338E1,3.446412406E1
6.151847630E0,1.819593310E0,-4.711789131E0,3.000413513E1,3.042630444E1
6.156883021E0,2.997540474E0,-4.491522312E0,2.552219009E1,2.608718476E1
6.161918412E0,4.175487995E0,-4.223371983E0,2.059971237E1,2.143874345E1
6.166953802E0,5.018246651E0,-3.639186621E0,1.508347034E1,1.630759198E1
6.171958676E0,5.439626217E0,-2.853888512E0,9.289502144E0,1.113683362E1
6.176994066E0,5.209783077E0,-1.991975784E0,3.572149038E0,6.623447440E0
6.182029457E0,4.462791920E0,-8.044517636E-1,-1.656787634E0,4.827898054E0
6.187034331E0,3.620033026E0,3.160346150E-1,-6.081272125E0,7.084235149E0
6.192069721E0,2.940079689E0,1.110909581E0,-9.356540680E0,9.870311149E0
6.197105112E0,2.489969730E0,1.733402014E0,-1.152089882E1,1.191367875E1
6.202140503E0,2.221819162E0,2.001552582E0,-1.275630665E1,1.310213923E1
6.207145376E0,2.308010340E0,1.915361404E0,-1.320641613E1,1.354270830E1
6.212180767E0,2.537853718E0,1.541865945E0,-1.278503704E1,1.312536568E1
6.217216157E0,2.825158119E0,9.576807022E-1,-1.159751320E1,1.197501495E1
6.222251548E0,3.016694069E0,3.926490843E-1,-1.003649330E1,1.048741218E1
6.227256422E0,3.093308687E0,-3.830722570E-1,-8.331821442E0,8.895760312E0
6.232291812E0,3.131615877E0,-1.120486379E0,-6.761225700E0,7.535030239E0
6.237327202E0,2.959233284E0,-1.771709204E0,-4.970362663E0,6.049836373E0
6.242362594E0,2.882618904E0,-2.413355350E0,-3.916913986E0,5.429179585E0
6.247367467E0,2.652775526E0,-2.844311714E0,-2.815581083E0,4.801543914E0
6.252402857E0,2.547430515E0,-3.246537447E0,-2.106897593E0,4.633403187E0
6.257438248E0,2.489969730E0,-3.399766445E0,-1.762132406E0,4.567654952E0
6.262473639E0,2.489969730E0,-3.629609823E0,-1.503558636E0,4.651312212E0
6.267478512E0,2.528276920E0,-3.687070608E0,-1.589749932E0,4.744889746E0
6.272513903E0,2.489969730E0,-3.524264812E0,-1.647210717E0,4.618841291E0
6.277549293E0,2.442085743E0,-3.217807055E0,-1.800439715E0,4.422629103E0
6.282584684E0,2.375048161E0,-2.825158119E0,-2.059013367E0,4.226335080E0
6.287589558E0,2.355894566E0,-2.260126352E0,-2.327163935E0,4.009252089E0
6.292624948E0,2.279279947E0,-1.714248419E0,-2.700659513E0,3.927763553E0
6.297660338E0,1.867477298E0,-1.149216771E0,-3.236960649E0,3.909742305E0
6.302695730E0,1.580173135E0,-6.224924326E-1,-3.744531393E0,4.111685703E0
6.307700603E0,1.369483352E0,-2.298433632E-1,-4.194641590E0,4.418521324E0
6.312735993E0,1.379060149E0,2.681505978E-1,-4.596867085E0,4.806755520E0
6.317771384E0,1.302445769E0,7.278373241E-1,-5.018246651E0,5.235352099E0
6.322806775E0,1.350329757E0,1.091755986E0,-5.592854977E0,5.856223047E0
6.327811649E0,1.359906554E0,1.340752959E0,-6.129156113E0,6.419775618E0
6.332847039E0,1.455674648E0,1.589749932E0,-6.655880928E0,6.996216439E0
6.337882429E0,1.608903527E0,1.742978811E0,-7.182605267E0,7.564149927E0
6.342917821E0,1.800439715E0,1.704671621E0,-7.527369976E0,7.925199509E0
6.347922694E0,2.049436569E0,1.618480325E0,-7.891288757E0,8.312166208E0
6.352958084E0,2.260126352E0,1.398213744E0,-7.699752808E0,8.145512022E0
6.357993475E0,2.432508945E0,1.273715258E0,-7.192182064E0,7.698502008E0
6.363028866E0,2.729389906E0,1.340752959E0,-6.617573261E0,7.282819758E0
6.368033739E0,3.150769472E0,1.321599364E0,-5.755661011E0,6.693400243E0
6.373069130E0,3.591302633E0,1.101332784E0,-4.979939461E0,6.237802942E0
6.378104520E0,3.993528366E0,9.864110947E-1,-4.252102375E0,5.916219254E0
6.383109393E0,4.242525578E0,8.523358107E-1,-3.581725836E0,5.617317827E0
6.388144785E0,4.434061527E0,6.895300746E-1,-2.882618904E0,5.333464643E0
6.393180175E0,4.673481941E0,5.554547906E-1,-2.336740971E0,5.254552487E0
6.398215565E0,4.319139957E0,6.129156351E-1,-1.561019540E0,4.633294460E0
6.403220439E0,3.715801001E0,8.427590132E-1,-6.607996821E-1,3.867050045E0
6.408255830E0,3.007117271E0,9.576807022E-1,4.213795066E-1,3.183938960E0
6.413291220E0,2.078166962E0,1.216254473E0,1.532289028E0,2.854113265E0
6.418326611E0,1.493981838E0,1.493981838E0,2.863465309E0,3.558566712E0
6.423331484E0,1.216254473E0,1.675941229E0,4.232948780E0,4.712314646E0
6.428366874E0,1.216254473E0,2.020706177E0,5.612008572E0,6.087459947E0
6.433402266E0,1.733402014E0,2.384624958E0,7.058106422E0,7.649051248E0
6.438407139E0,2.557007313E0,2.633621931E0,8.437167168E0,9.201089103E0
6.443442529E0,3.332728863E0,3.102885485E0,1.005564690E1,1.103861470E1
6.448477920E0,4.079719543E0,3.744531393E0,1.164539719E1,1.289499525E1
6.453513311E0,5.267243862E0,4.386177540E0,1.317768574E1,1.485374743E1
6.458518184E0,6.895300865E0,5.046977043E0,1.463336086E1,1.694557174E1
6.463553575E0,9.069235802E0,5.659893036E0,1.648168373E1,1.964513491E1
6.468588965E0,1.112824917E1,5.813121796E0,1.911530685E1,2.286974575E1
6.473624356E0,1.250730991E1,5.382165432E0,2.196919441E1,2.584658602E1
6.478629230E0,1.375229454E1,3.830722809E0,2.407609177E1,2.799032399E1
6.483664620E0,1.553358078E1,1.541865945E0,2.555092049E1,2.994192746E1
6.488700011E0,1.730529022E1,-6.033388376E-1,2.727474594E1,3.230710222E1
6.493735402E0,1.783201408E1,-1.101332784E0,2.958275604E1,3.455912492E1
6.498740275E0,1.753513336E1,-1.426944256E0,3.268564224E1,3.711964818E1
6.503775666E0,1.740105820E1,-2.355894566E0,3.593217850E1,3.999335591E1
6.508811056E0,1.711375427E1,-3.849876404E0,3.867114639E1,4.246362793E1
6.513846447E0,1.607945824E1,-5.133168221E0,4.079719543E1,4.415098582E1
6.518851321E0,1.414494324E1,-5.200206280E0,4.214752579E1,4.476087013E1
6.523886711E0,1.129105568E1,-4.185064793E0,4.259763718E1,4.426693347E1
6.528922101E0,8.169015884E0,-2.777273893E0,4.166868591E1,4.255261985E1
6.533957493E0,5.544970989E0,-1.561019540E0,3.975332642E1,4.016852557E1
6.538962366E0,3.792415380E0,-5.171475410E-1,3.717716217E1,3.737367045E1
6.543997756E0,2.624045134E0,5.171475410E-1,3.423708344E1,3.434138810E1
6.549033147E0,1.829170108E0,1.398213744E0,3.110546875E1,3.119056029E1
6.554068538E0,1.254561663E0,2.260126352E0,2.778231621E1,2.790231514E1
6.559073411E0,1.120486379E0,2.959233284E0,2.435381889E1,2.455852288E1
6.564108802E0,1.302445769E0,3.361459255E0,2.093490028E1,2.124301822E1
6.569144192E0,1.953668594E0,4.079719543E0,1.766920853E1,1.823902033E1
6.574179583E0,3.055001259E0,4.999093056E0,1.421198082E1,1.537219447E1
6.579184457E0,3.725377798E0,5.659893036E0,1.114740276E1,1.304520668E1
6.584219847E0,3.993528366E0,5.612008572E0,7.364564419E0,1.008363615E1
6.589255237E0,4.347870350E0,6.483498096E0,3.227383852E0,8.447232131E0
6.594260111E0,4.903325081E0,6.981492043E0,-1.340752989E-1,8.532397329E0
6.599295502E0,4.606443882E0,6.655880928E0,-2.901772499E0,8.598858052E0
6.604330892E0,4.175487995E0,6.924031258E0,-5.066130638E0,9.541623997E0
6.609366283E0,3.485957623E0,7.038952827E0,-6.454767704E0,1.016674892E1
6.614371156E0,3.007117271E0,6.703764915E0,-6.904877663E0,1.008268585E1
6.619406548E0,2.432508945E0,6.301538944E0,-7.374141216E0,1.000022257E1
6.624441938E0,1.810016513E0,5.592854977E0,-6.895300865E0,9.060980112E0
6.629477328E0,9.672574997E-1,5.056553841E0,-5.995080948E0,7.902235088E0
6.634482202E0,1.244984865E-1,4.472368717E0,-4.970362663E0,6.687457426E0
6.639517593E0,-6.895300746E-1,3.878606796E0,-3.878606796E0,5.528348133E0
6.644552983E0,-1.493981838E0,3.313575268E0,-2.652775526E0,4.499886752E0
6.649588374E0,-2.106897593E0,2.700659513E0,-1.292868972E0,3.661159577E0
6.654623765E0,-2.643198729E0,2.308010340E0,5.746084079E-2,3.509517488E0
6.659628638E0,-3.361459255E0,1.963245392E0,1.561019540E0,4.194105721E0
6.664664029E0,-3.907337189E0,1.829170108E0,3.122039080E0,5.325436621E0
6.669699419E0,-4.386177540E0,1.953668594E0,4.386177540E0,6.503378184E0
6.674704292E0,-4.529829502E0,2.097320795E0,5.391742229E0,7.347720334E0
6.679739684E0,-4.587290287E0,2.193088770E0,6.387730122E0,8.164310543E0
6.684775074E0,-4.453215122E0,2.231395960E0,6.991068840E0,8.584014002E0
6.689810464E0,-4.050989151E0,2.384624958E0,7.192182064E0,8.592114532E0
6.694815338E0,-3.801992416E0,2.355894566E0,7.240066051E0,8.510225730E0
6.699850728E0,-3.543418407E0,2.384624958E0,7.383718014E0,8.530037626E0
6.704886119E0,-3.227383852E0,2.308010340E0,7.651868820E0,8.619397583E0
6.709921510E0,-3.064578056E0,2.173935175E0,7.747636795E0,8.610662502E0
6.714926383E0,-3.122039080E0,2.059013367E0,7.546523571E0,8.422391707E0
6.719961773E0,-3.131615877E0,1.819593310E0,7.153874874E0,8.018470149E0
6.724997165E0,-3.179499865E0,1.800439715E0,6.014234543E0,7.037174127E0
6.730032555E0,-3.198653460E0,1.647210717E0,4.874594688E0,6.058577430E0
6.735037428E0,-3.543418407E0,1.484405041E0,3.983951569E0,5.534540851E0
6.740072819E0,-3.744531393E0,1.618480325E0,2.700659513E0,4.892295547E0
6.745108210E0,-4.070142746E0,1.656787634E0,1.618480325E0,4.682999658E0
6.750143600E0,-4.319139957E0,1.628057122E0,6.320692301E-1,4.658868047E0
6.755148474E0,-4.616020679E0,1.685518026E0,-3.734954596E-1,4.928297555E0
6.760183864E0,-4.692635536E0,1.781286120E0,-9.959878922E-1,5.117206308E0
6.765219255E0,-4.912901878E0,1.838746905E0,-1.216254473E0,5.384874185E0
6.770224129E0,-5.104437828E0,1.857900500E0,-1.168370485E0,5.556272978E0
6.775259519E0,-5.257667065E0,1.991975784E0,-7.948749661E-1,5.678279378E0
6.780294910E0,-5.439626217E0,1.934514999E0,-2.298433632E-1,5.777950297E0
6.785330301E0,-5.276820660E0,1.915361404E0,5.363011956E-1,5.639243261E0
6.790335174E0,-5.267243862E0,1.896207690E0,1.493981838E0,5.794086920E0
6.795370565E0,-5.449203014E0,1.991975784E0,2.355894566E0,6.261950193E0
6.800405955E0,-5.698200226E0,2.154781580E0,3.361459255E0,6.957871643E0
6.805441346E0,-5.995080948E0,2.413355350E0,4.328716755E0,7.778371832E0
6.810446220E0,-6.397306919E0,2.537853718E0,5.133168221E0,8.585782043E0
6.815481610E0,-6.742072105E0,2.671929121E0,5.928043365E0,9.366773171E0
6.820517000E0,-7.048529625E0,2.863465309E0,6.732495308E0,1.015911889E1
6.825521874E0,-7.182605267E0,3.169923067E0,7.153874874E0,1.062149502E1
6.830557265E0,-7.230489254E0,3.543418407E0,7.374141216E0,1.091850482E1
6.835592655E0,-7.393294811E0,3.830722809E0,7.278373241E0,1.105938346E1
6.840628046E0,-7.929595947E0,4.683058739E0,7.460332394E0,1.185183912E1
6.845632919E0,-8.925583839E0,5.765237808E0,8.034940720E0,1.332157221E1
6.850668310E0,-1.008437729E1,7.115567684E0,9.050082207E0,1.530457307E1
6.855703701E0,-1.116655636E1,8.475474358E0,1.056321812E1,1.755298332E1
6.860708574E0,-1.168370438E1,9.902418137E0,1.289995861E1,2.002437927E1
6.865743964E0,-1.092713642E1,1.081221485E1,1.619437981E1,2.232855207E1
6.870779356E0,-8.944737434E0,1.120486355E1,2.073378754E1,2.520807887E1
6.875814746E0,-5.880159378E0,1.120486355E1,2.654690933E1,2.940856400E1
6.880819619E0,-1.637633920E0,1.062067890E1,3.299209976E1,3.469811683E1
6.885855010E0,2.624045134E0,9.797073364E0,3.916913986E1,4.046096609E1
6.890890401E0,5.659893036E0,8.207323074E0,4.480030060E1,4.589620327E1
6.895925791E0,8.331821442E0,5.066130638E0,4.831499100E1,4.928918018E1
6.900930665E0,1.059194851E1,1.541865945E0,4.978024292E1,5.091796647E1
6.905966055E0,1.115697956E1,-6.895300746E-1,5.052723312E1,5.174896068E1
6.911001447E0,9.921571732E0,-1.570596337E0,5.136999130E1,5.234291131E1
6.916036837E0,8.034940720E0,-2.509123325E0,5.248089981E1,5.315167746E1
6.921041710E0,6.502651691E0,-4.280832767E0,5.328535461E1,5.385108193E1
6.926080314E0,5.343858242E0,-6.789956093E0,5.406107330E1,5.474723711E1
6.931115701E0,3.907337189E0,-9.232041359E0,5.511452484E1,5.601882469E1
6.936151088E0,2.489969730E0,-1.090798283E1,5.585193634E1,5.696159084E1
6.941186476E0,1.379060149E0,-1.210508347E1,5.589982224E1,5.721210517E1
6.946191346E0,1.139639974E0,-1.314895535E1,5.458779907E1,5.616067675E1
6.951226733E0,1.857900500E0,-1.438436413E1,5.231809616E1,5.429129683E1
6.956262120E0,2.537853718E0,-1.510262394E1,4.933971024E1,5.166175527E1
6.961297508E0,2.729389906E0,-1.517923832E1,4.545152664E1,4.799687614E1
6.966302379E0,3.859453201E0,-1.537077522E1,3.907337189E1,4.216496769E1
6.971337766E0,5.851428986E0,-1.564850235E1,3.298252106E1,3.697244301E1
6.976373153E0,7.335834026E0,-1.538992882E1,2.620214272E1,3.126046469E1
6.981408541E0,8.676587105E0,-1.478658962E1,1.928768921E1,2.580583948E1
6.986413411E0,9.528923035E0,-1.368525696E1,1.231577396E1,2.073077231E1
6.991448798E0,9.672574997E0,-1.231577396E1,5.391742229E0,1.656224259E1
6.996484185E0,9.203310966E0,-1.055364132E1,-1.283292055E0,1.406154744E1
7.001489055E0,8.293514252E0,-8.714894295E0,-7.134721279E0,1.398699428E1
7.006524443E0,7.086836815E0,-6.742072105E0,-1.208592987E1,1.554826335E1
7.011559830E0,5.908889771E0,-4.932055473E0,-1.543781281E1,1.725010764E1
7.016595218E0,4.740519524E0,-3.610456228E0,-1.742978859E1,1.842024565E1
7.021600088E0,3.878606796E0,-2.729389906E0,-1.808101082E1,1.869267536E1
7.026635476E0,3.438073635E0,-2.183511972E0,-1.760217094E1,1.806722161E1
7.031670863E0,4.232948780E0,-2.710236311E0,-1.680729675E1,1.754276091E1
7.036675733E0,4.730942726E0,-3.150769472E0,-1.569638634E1,1.669388245E1
7.041711120E0,5.123591423E0,-3.409343243E0,-1.395340729E1,1.525032411E1
7.046746508E0,5.497087002E0,-3.581725836E0,-1.166455078E1,1.338314128E1
7.051781895E0,5.956773758E0,-3.687070608E0,-9.500192642E0,1.180386816E1
7.056786765E0,6.378153324E0,-3.878606796E0,-7.556100368E0,1.062163280E1
7.061822152E0,6.722918510E0,-4.079719543E0,-5.985504150E0,9.882712420E0
7.066857541E0,7.240066051E0,-4.299986362E0,-4.692635536E0,9.639982750E0
7.071892928E0,7.623138428E0,-4.299986362E0,-3.782838583E0,9.534777918E0
7.076897798E0,7.805097580E0,-4.271255970E0,-3.189076662E0,9.451634025E0
7.081933185E0,7.967903137E0,-4.405331135E0,-2.920926094E0,9.561706545E0
7.086968573E0,7.766790390E0,-4.434061527E0,-3.016694069E0,9.438452082E0
7.092003960E0,7.412448406E0,-4.261679173E0,-3.342305660E0,9.180267309E0
7.097008830E0,6.933608055E0,-3.955221176E0,-3.821146011E0,8.849850397E0
7.102044217E0,6.473921299E0,-3.620033026E0,-4.443638325E0,8.646514769E0
7.107079605E0,5.947196960E0,-3.256114244E0,-5.027823448E0,8.440997588E0
7.112114992E0,5.363011837E0,-2.748543501E0,-5.746084213E0,8.326696291E0
7.117119863E0,4.903325081E0,-2.298433542E0,-6.387730122E0,8.374275473E0
7.122155250E0,4.558559895E0,-1.886630893E0,-6.962338448E0,8.533112041E0
7.127190638E0,4.261679173E0,-1.551442742E0,-7.565677166E0,8.820904428E0
7.132226025E0,4.098873138E0,-1.101332784E0,-7.996633530E0,9.053167551E0
7.137230895E0,3.993528366E0,-8.044517636E-1,-8.408436775E0,9.343298157E0
7.142266282E0,3.983951569E0,-5.171475410E-1,-8.762778282E0,9.639792264E0
7.147301670E0,3.974374771E0,-3.064578176E-1,-9.021351814E0,9.862776474E0
7.152337057E0,3.983951569E0,-1.149216816E-1,-9.107542992E0,9.941449413E0
7.157341927E0,4.098873138E0,-1.915361360E-2,-9.155426979E0,1.003110019E1
7.162377314E0,4.347870350E0,0.000000000E0,-8.839392662E0,9.850829367E0
7.167412702E0,4.424484730E0,9.576806426E-2,-8.312667847E0,9.417307650E0
7.172417572E0,4.386177540E0,2.011129409E-1,-7.479485989E0,8.673045052E0
7.177452960E0,4.175487995E0,3.447650373E-1,-6.540958881E0,7.767734935E0
7.182488347E0,4.252102375E0,3.351882398E-1,-5.535394192E0,6.988083759E0
7.187523735E0,4.261679173E0,2.777273953E-1,-4.376600742E0,6.115036871E0
7.192528604E0,4.367023945E0,1.244984865E-1,-3.189076662E0,5.408937785E0
7.197563992E0,4.395754337E0,-1.149216816E-1,-1.790862918E0,4.747952525E0
7.202599379E0,4.108449936E0,-2.106897533E-1,-5.841852427E-1,4.155120148E0
7.207604249E0,3.964797974E0,-2.777273953E-1,7.661445141E-1,4.047682410E0
7.212639636E0,3.754108191E0,-3.447650373E-1,1.790862918E0,4.173653223E0
7.217675024E0,3.581725836E0,-3.351882398E-1,2.748543501E0,4.527206920E0
7.222710412E0,3.189076662E0,-2.585737705E-1,3.725377798E0,4.910754534E0
7.227715282E0,2.710236311E0,-3.830722719E-2,4.529829502E0,5.278844914E0
7.232750669E0,2.193088770E0,1.628057212E-1,4.970362663E0,5.435131007E0
7.237786057E0,1.810016513E0,3.351882398E-1,5.133168221E0,5.453249207E0
7.242790926E0,1.637633920E0,4.884171486E-1,4.960785866E0,5.246884082E0
7.247826314E0,1.091755986E0,7.852981687E-1,4.654327869E0,4.844728296E0
7.252861701E0,3.351882398E-1,1.264138460E0,4.309563160E0,4.503635402E0
7.257897089E0,-4.788403511E-1,1.695094824E0,4.022258759E0,4.391036331E0
7.262901958E0,-1.225831270E0,2.346317768E0,3.801992416E0,4.632819412E0
7.267937347E0,-2.126051188E0,3.399766445E0,3.945644379E0,5.625532428E0
7.272972734E0,-3.189076662E0,5.037400246E0,4.070142746E0,7.218841539E0
7.278008122E0,-3.926490784E0,6.684611320E0,4.529829502E0,8.978903814E0
7.283012991E0,-4.587290287E0,8.188169479E0,5.966350555E0,1.112145182E1
7.288048379E0,-5.066130638E0,9.500192642E0,8.619126320E0,1.379161624E1
7.293083766E0,-4.836287498E0,1.036210537E1,1.205719948E1,1.661742952E1
7.298088636E0,-3.007117271E0,1.023760605E1,1.570596313E1,1.898759094E1
7.303124023E0,6.129156351E-1,9.366117477E0,1.942176437E1,2.157092380E1
7.308159411E0,5.315127850E0,8.408436775E0,2.349190712E1,2.551121505E1
7.313194798E0,1.098459721E1,7.412448406E0,2.867296028E1,3.158709259E1
7.318199669E0,1.799481964E1,5.707777023E0,3.448608017E1,3.931516219E1
7.323235056E0,2.520615578E1,3.725377798E0,4.059608459E1,4.792985305E1
7.328270444E0,3.094266319E1,1.953668594E0,4.605486298E1,5.551860616E1
7.333305831E0,3.381570435E1,6.320692301E-1,4.978981781E1,6.019075784E1
7.338310701E0,3.326025009E1,-1.340752989E-1,5.241386414E1,6.207636721E1
7.343346088E0,2.924756813E1,-4.788403213E-2,5.266286087E1,6.023951734E1
7.348381476E0,2.319502640E1,8.427590132E-1,5.234682465E1,5.726176336E1
7.353416863E0,1.660618210E1,1.848323703E0,4.993347168E1,5.265484952E1
7.358421733E0,1.053448772E1,2.767697096E0,4.653370285E1,4.779143312E1
7.363457120E0,5.525817394E0,3.591302633E0,4.235821533E1,4.286782615E1
7.368492508E0,2.145204782E0,4.357447147E0,3.761769867E1,3.792994203E1
7.373527896E0,7.182605267E-1,4.778826714E0,3.284844589E1,3.320201019E1
7.378532766E0,5.746083856E-1,4.836287498E0,2.873042107E1,2.914029763E1
7.383568153E0,9.959878922E-1,4.759673119E0,2.533065414E1,2.579318746E1
7.388603541E0,1.790862918E0,4.759673119E0,2.195961761E1,2.254077381E1
7.393608411E0,3.198653460E0,4.778826714E0,1.812889481E1,1.901907978E1
7.398643798E0,5.027823448E0,4.826710701E0,1.358948898E1,1.527253599E1
7.403679185E0,6.588842869E0,4.951209068E0,8.925583839E0,1.214880111E1
7.408714573E0,7.661445618E0,5.152322292E0,4.520252705E0,1.027992502E1
7.413719443E0,8.303091049E0,5.353435040E0,5.841852427E-1,9.896557992E0
7.418754830E0,8.475474358E0,5.659893036E0,-2.719813108E0,1.054824337E1
7.423790218E0,8.341399193E0,5.717353821E0,-5.171475887E0,1.135831141E1
7.428795088E0,7.881711960E0,5.640739441E0,-6.770802498E0,1.182298995E1
7.433830476E0,7.058106422E0,5.554547787E0,-7.824251175E0,1.191170743E1
7.438865863E0,6.052541733E0,5.181052685E0,-7.881711960E0,1.120704920E1
7.443901250E0,5.161899090E0,4.692635536E0,-7.498639584E0,1.024185657E1
7.448906120E0,3.974374771E0,4.127603531E0,-6.722918510E0,8.833481705E0
7.453941508E0,2.825158119E0,3.620033026E0,-5.870582581E0,7.453180351E0
7.458976895E0,2.049436569E0,3.141192675E0,-4.807557106E0,6.097531222E0
7.464012282E0,1.206677675E0,2.585737944E0,-4.022258759E0,4.931599867E0
7.469017152E0,3.160346150E-1,2.106897593E0,-3.533841610E0,4.126370302E0
7.474052541E0,-4.788403511E-1,1.484405041E0,-2.978386879E0,3.362072993E0
7.479087928E0,-1.484405041E0,1.024718285E0,-2.384624958E0,2.989973592E0
7.484123315E0,-2.671929121E0,6.991068721E-1,-1.838746905E0,3.317973151E0
7.489128185E0,-3.591302633E0,4.022258818E-1,-1.197100878E0,3.806874148E0
7.494163573E0,-4.165910721E0,1.819593310E-1,-7.278373241E-1,4.232926706E0
7.499198960E0,-4.740519524E0,9.576806426E-2,-2.873042040E-2,4.741573822E0
7.504234347E0,-5.075707436E0,4.788403213E-2,7.278373241E-1,5.127850039E0
7.509239217E0,-5.477933407E0,3.830722719E-2,1.561019540E0,5.696139382E0
7.514274604E0,-5.506663799E0,1.340752989E-1,2.384624958E0,6.002312769E0
7.519309992E0,-5.382165432E0,3.256114423E-1,3.169923067E0,6.254769364E0
7.524345380E0,-4.979939461E0,6.033388376E-1,3.983951569E0,6.405910153E0
7.529350250E0,-4.501099110E0,8.427590132E-1,4.750096321E0,6.597995984E0
7.534385637E0,-4.185064793E0,1.225831270E0,5.391742229E0,6.934573807E0
7.539421025E0,-4.223371983E0,1.522712231E0,6.138733387E0,7.605233135E0
7.544456412E0,-4.185064793E0,1.886630893E0,6.531382084E0,7.983301032E0
7.549461282E0,-4.242525578E0,2.212242365E0,6.732495308E0,8.259511646E0
7.554496669E0,-4.539406300E0,2.528276920E0,6.579266071E0,8.383623070E0
7.559532057E0,-4.960785866E0,2.949656487E0,6.550535679E0,8.730371554E0
7.564567444E0,-5.228936672E0,3.265691042E0,6.397306919E0,8.884371251E0
7.569572314E0,-5.966350555E0,3.476380825E0,6.244078159E0,9.309730106E0
7.574607702E0,-6.464344501E0,3.792415380E0,5.621585369E0,9.368691814E0
7.579643090E0,-6.780379295E0,3.916913986E0,4.577713490E0,9.070348359E0
7.584678477E0,-6.962338448E0,4.041412354E0,3.734954596E0,8.874517243E0
7.589683347E0,-7.192182064E0,4.185064793E0,2.777273893E0,8.772428423E0
7.594718734E0,-7.335834026E0,4.338293552E0,2.193088770E0,8.800277846E0
7.599754122E0,-7.220912457E0,4.462791920E0,9.768342972E-1,8.544723147E0
7.604758992E0,-7.192182064E0,4.683058739E0,3.639186621E-1,8.590166400E0
7.609794379E0,-6.885724068E0,4.616020679E0,-2.106897533E-1,8.292480511E0
7.614829766E0,-6.502651691E0,4.577713490E0,-5.267243981E-1,7.969779069E0
7.619865154E0,-6.282385349E0,4.663905144E0,-2.968810201E-1,7.829975428E0
7.624870025E0,-6.234501362E0,4.817133904E0,9.576806426E-2,7.879273938E0
7.629905412E0,-6.282385349E0,4.797980309E0,6.416460276E-1,7.930995545E0
7.634940799E0,-6.722918510E0,4.884171486E0,1.187524080E0,8.394222885E0
7.639976187E0,-7.517793179E0,4.807557106E0,1.867477298E0,9.116868490E0
7.644981057E0,-8.398859978E0,4.711789131E0,2.911349297E0,1.006070378E1
7.650016444E0,-9.586383820E0,4.817133904E0,4.242525578E0,1.153700815E1
7.655051831E0,-1.092713642E1,5.190629482E0,5.956773758E0,1.348436496E1
7.660087219E0,-1.239238834E1,5.717353821E0,7.967903137E0,1.580338268E1
7.665092089E0,-1.344583702E1,6.579266071E0,1.030464458E1,1.817313884E1
7.670127476E0,-1.445140171E1,7.757213593E0,1.297657299E1,2.091432095E1
7.675162863E0,-1.482489681E1,8.925583839E0,1.697967911E1,2.424362009E1
7.680198252E0,-1.460463047E1,1.007480049E1,2.092532349E1,2.743475896E1
7.685203122E0,-1.356075859E1,1.083136845E1,2.557007408E1,3.090374418E1
7.690238509E0,-1.152089882E1,1.115697956E1,3.091393280E1,3.482643455E1
7.695273896E0,-9.289502144E0,1.113782597E1,3.671747589E1,3.947808320E1
7.700309284E0,-6.579266071E0,1.040041256E1,4.264551926E1,4.438575938E1
7.705314154E0,-3.208230257E0,8.427590370E0,4.783615112E1,4.867868502E1
7.710349541E0,5.746083856E-1,5.190629482E0,5.192544556E1,5.218739987E1
7.715384928E0,4.367023945E0,1.819593310E0,5.489425659E1,5.509774246E1
7.720389798E0,7.661445618E0,-6.320692301E-1,5.732676697E1,5.783991244E1
7.725425186E0,9.605537415E0,-1.924938202E0,5.881116867E1,5.962151706E1
7.730460574E0,1.022802925E1,-2.624045134E0,5.925170517E1,6.018523707E1
7.735495961E0,1.037168217E1,-3.696647406E0,5.893566895E1,5.995540065E1
7.740531349E0,1.023760605E1,-5.324704647E0,5.813121796E1,5.926550057E1
7.745536219E0,1.041956615E1,-7.316680431E0,5.659892654E1,5.801327139E1
7.750571606E0,1.094629002E1,-9.126696587E0,5.464525986E1,5.647319967E1
7.755606993E0,1.131020927E1,-1.027591324E1,5.239471054E1,5.457765953E1
7.760642381E0,1.154962921E1,-1.135809326E1,5.037400436E1,5.291446431E1
7.765647251E0,1.162624359E1,-1.243069553E1,4.802768707E1,5.095439586E1
7.770682638E0,1.183693314E1,-1.350329781E1,4.477157211E1,4.823842563E1
7.775718025E0,1.204762268E1,-1.433648014E1,4.058650589E1,4.469837061E1
7.780753413E0,1.224873543E1,-1.466209126E1,3.590345001E1,4.067021222E1
7.785758283E0,1.226788998E1,-1.448013210E1,3.065535927E1,3.605449212E1
7.790793671E0,1.201889229E1,-1.400129128E1,2.495715904E1,3.103787552E1
7.795829058E0,1.179862595E1,-1.333091545E1,1.906742287E1,2.608615525E1
7.800864446E0,1.155920601E1,-1.256477070E1,1.332133865E1,2.165517882E1
7.805869315E0,1.124317074E1,-1.176989555E1,7.603984833E0,1.796552017E1
7.810904703E0,1.107078838E1,-1.059194851E1,2.643198729E0,1.554793324E1
7.815940090E0,1.074517727E1,-9.586383820E0,-1.829170108E0,1.451562787E1
7.820975478E0,9.998186111E0,-8.446743965E0,-5.286397457E0,1.411584950E1
7.825980347E0,8.916007042E0,-7.278373241E0,-8.216899872E0,1.414168809E1
7.831015736E0,7.766790390E0,-6.090848923E0,-1.057279491E1,1.446393673E1
7.836051123E0,7.115567684E0,-5.228936672E0,-1.266053867E1,1.543574817E1
7.841055993E0,6.703764915E0,-4.817133904E0,-1.417367363E1,1.640238602E1
7.846091380E0,6.713341713E0,-4.855441093E0,-1.501643276E1,1.715043784E1
7.851126768E0,6.809109688E0,-5.085284233E0,-1.521754646E1,1.742979664E1
7.856162155E0,6.713341713E0,-5.085284233E0,-1.470997524E1,1.695029334E1
7.861167025E0,7.067683220E0,-5.707777023E0,-1.374271774E1,1.647401456E1
7.866202412E0,7.374141216E0,-6.358999729E0,-1.263180828E1,1.594921367E1
7.871237800E0,7.584830761E0,-6.713341713E0,-1.115697956E1,1.506906791E1
7.876273187E0,7.718906403E0,-6.895300865E0,-9.442731857E0,1.401042023E1
7.881278058E0,7.785943985E0,-6.914454460E0,-7.900865555E0,1.307112393E1
7.886313445E0,7.987056732E0,-6.943184853E0,-6.665457726E0,1.250716666E1
7.891348833E0,7.996633530E0,-6.962338448E0,-5.793968201E0,1.208264756E1
7.896384220E0,7.776367188E0,-6.856993675E0,-5.458779812E0,1.171701865E1
7.901389090E0,7.278373241E0,-6.732495308E0,-5.430049419E0,1.130427560E1
7.906424477E0,6.694188118E0,-6.493074894E0,-5.726930618E0,1.094394401E1
7.911459865E0,6.081272125E0,-6.244078159E0,-6.186617374E0,1.068852737E1
7.916495252E0,5.583278179E0,-5.937620163E0,-6.703764915E0,1.055314136E1
7.921500122E0,5.037400246E0,-5.564124584E0,-7.220912457E0,1.041520333E1
7.926535509E0,4.683058739E0,-5.181052685E0,-7.603984833E0,1.032448214E1
7.931570897E0,4.386177540E0,-4.673481941E0,-7.929595947E0,1.019600308E1
7.936606285E0,4.194641590E0,-4.089296341E0,-8.169015884E0,1.005237202E1
7.941611155E0,4.175487995E0,-3.600879431E0,-8.398859978E0,1.004698371E1
7.946646542E0,4.261679173E0,-3.236960649E0,-8.695740700E0,1.021056952E1
7.951681930E0,4.481945515E0,-2.796427488E0,-9.021351814E0,1.045431159E1
7.956686800E0,4.769249916E0,-2.528276920E0,-9.375694275E0,1.081857533E1
7.961722187E0,4.932055473E0,-2.240972757E0,-9.730035782E0,1.113645933E1
7.966757574E0,5.008669853E0,-2.049436569E0,-9.950302124E0,1.132675930E1
7.971792962E0,5.094861031E0,-2.059013367E0,-1.018014526E1,1.156859985E1
7.976797832E0,5.161899090E0,-2.116474390E0,-1.032379818E1,1.173479761E1
7.981833219E0,5.037400246E0,-2.097320795E0,-1.040041256E1,1.174490260E1
7.986868607E0,4.941632271E0,-2.250549555E0,-1.017056847E1,1.152931766E1
7.991903995E0,4.721365929E0,-2.202665567E0,-9.854534149E0,1.114696708E1
7.996908865E0,4.529829502E0,-2.183511972E0,-9.346963882E0,1.061380298E1
8.001944252E0,4.405331135E0,-2.327163935E0,-8.580819130E0,9.922353114E0
8.006979639E0,4.213795185E0,-2.480392933E0,-7.671022415E0,9.096867805E0
8.012015027E0,4.098873138E0,-2.643198729E0,-6.655880928E0,8.251546004E0
8.017019897E0,4.261679173E0,-2.930502892E0,-5.334281445E0,7.429960639E0
8.022055284E0,4.165910721E0,-3.093308687E0,-3.926490784E0,6.506973232E0
8.027090671E0,3.801992416E0,-3.227383852E0,-2.106897593E0,5.413886804E0
8.032126059E0,3.208230257E0,-2.940079689E0,1.244984865E-1,4.353425069E0
8.037130930E0,2.825158119E0,-2.308010340E0,2.614468336E0,4.488192822E0
8.042166317E0,2.825158119E0,-1.762132406E0,4.903325081E0,5.926991299E0
8.047201704E0,3.457227230E0,-1.417367458E0,6.761225700E0,7.724993437E0
8.052237092E0,4.213795185E0,-1.493981838E0,8.034940720E0,9.195016257E0
8.057241961E0,4.702212334E0,-1.388636947E0,8.657433510E0,9.949385327E0
8.062277349E0,4.386177540E0,-1.244984865E0,9.222464561E0,1.028797324E1
8.067312736E0,3.485957623E0,-5.746083856E-1,9.270348549E0,9.920757913E0
8.072317606E0,2.078166962E0,5.171475410E-1,9.289502144E0,9.533156328E0
8.077352993E0,8.714894056E-1,1.934514999E0,9.519346237E0,9.752937755E0
8.082388381E0,-2.489969730E-1,3.983951569E0,1.050575733E1,1.123854113E1
8.087423768E0,-1.819593310E0,6.416460514E0,1.244984913E1,1.412376114E1
8.092428639E0,-2.671929121E0,8.465897560E0,1.466209126E1,1.714023182E1
8.097464026E0,-1.589749932E0,9.366117477E0,1.718079185E1,1.963239848E1
8.102499414E0,2.030282974E0,9.097966194E0,1.991018105E1,2.198432048E1
8.107534801E0,7.402871609E0,8.992621422E0,2.360682869E1,2.632398353E1
8.112539671E0,1.377144814E1,9.308655739E0,2.833777046E1,3.285320517E1
8.117575058E0,2.081997871E1,9.653421402E0,3.445735168E1,4.140011043E1
8.122610446E0,2.814623451E1,9.595960617E0,4.123773193E1,5.084135632E1
8.127645833E0,3.466804123E1,8.868123055E0,4.684016037E1,5.894503637E1
8.132650703E0,3.914040756E1,8.427590370E0,5.204036713E1,6.565969536E1
8.137686091E0,4.007893753E1,8.839392662E0,5.395573044E1,6.779142234E1
8.142721479E0,3.613329315E1,1.000776291E1,5.327577591E1,6.514659232E1
8.147726349E0,2.968810081E1,1.146343803E1,4.989516449E1,5.918041214E1
8.152761736E0,2.236184311E1,1.258392429E1,4.489606857E1,5.171135418E1
8.157797123E0,1.501643276E1,1.344583702E1,3.925533295E1,4.412782513E1
8.162832511E0,8.791508675E0,1.398213768E1,3.385401154E1,3.766808856E1
8.167837381E0,4.414907932E0,1.388636971E1,2.863465309E1,3.212889717E1
8.172872768E0,2.260126352E0,1.316810894E1,2.405693817E1,2.751805840E1
8.177908155E0,1.532289028E0,1.224873543E1,1.976652908E1,2.330440090E1
8.182943543E0,9.002198577E-1,1.179862595E1,1.594538307E1,1.985631414E1
8.187948414E0,8.427590132E-1,1.182735634E1,1.321599293E1,1.775553631E1
8.192983801E0,5.554547906E-1,1.159751320E1,1.034295177E1,1.554951748E1
8.198019188E0,5.937620401E-1,1.119528675E1,6.895300865E0,1.316176936E1
8.203054576E0,1.484405041E0,1.056321812E1,3.179499865E0,1.113077961E1
8.208059446E0,2.384624958E0,9.940725327E0,-3.064578176E-1,1.022733458E1
8.213094833E0,2.997540474E0,9.481039047E0,-3.141192675E0,1.042796441E1
8.218130220E0,3.332728863E0,9.030928612E0,-5.190629482E0,1.093651625E1
8.223135090E0,3.648763418E0,8.801085472E0,-6.349422932E0,1.144935594E1
8.228170478E0,3.754108191E0,8.590395927E0,-7.374141216E0,1.192753911E1
8.233205865E0,3.964797974E0,8.178592682E0,-8.044517517E0,1.213767949E1
8.238241252E0,3.945644379E0,7.642292023E0,-8.207323074E0,1.188835098E1
8.243246123E0,3.706224203E0,7.105990410E0,-8.130708694E0,1.141663792E1
8.248281511E0,3.198653460E0,6.473921299E0,-7.623138428E0,1.050025145E1
8.253316898E0,2.643198729E0,5.832275391E0,-7.192182064E0,9.629611549E0
8.258352285E0,2.240972757E0,5.171475887E0,-6.588842869E0,8.670580840E0
8.263357155E0,1.771709204E0,4.510675907E0,-5.698200226E0,7.480283180E0
8.268392543E0,1.139639974E0,3.878606796E0,-4.644751072E0,6.157603630E0
8.273427930E0,4.118026793E-1,3.390189648E0,-3.169923067E0,4.659547139E0
8.278463317E0,-5.746083856E-1,2.863465309E0,-1.924938202E0,3.497855837E0
8.283468187E0,-1.503558636E0,2.442085743E0,-5.841852427E-1,2.926729189E0
8.288503575E0,-2.432508945E0,2.097320795E0,4.788403511E-1,3.247328497E0
8.293538963E0,-3.399766445E0,1.752555609E0,1.503558636E0,4.109811628E0
8.298574350E0,-4.223371983E0,1.551442742E0,2.422932148E0,5.110229513E0
8.303579220E0,-5.008669853E0,1.417367458E0,3.217807055E0,6.119639405E0
8.308614608E0,-5.506663799E0,1.292868972E0,3.869029999E0,6.853046732E0
8.313649995E0,-6.090848923E0,1.110909581E0,4.242525578E0,7.505436961E0
8.318685382E0,-6.598419666E0,1.139639974E0,4.299986362E0,7.957876858E0
8.323690252E0,-7.144298077E0,1.130063176E0,4.204218388E0,8.366211212E0
8.328725639E0,-7.508216381E0,9.768342972E-1,4.165910721E0,8.641893925E0
8.333761027E0,-7.948749542E0,1.015141487E0,4.232948780E0,9.062614794E0
8.338796414E0,-8.446743965E0,9.768342972E-1,4.319139957E0,9.537120049E0
8.343801285E0,-8.743624687E0,1.120486379E0,4.357447147E0,9.833300974E0
8.348836672E0,-8.820239067E0,1.292868972E0,4.252102375E0,9.876664517E0
8.353872060E0,-8.628703117E0,1.321599364E0,3.773261786E0,9.509923600E0
8.358876930E0,-8.513781548E0,1.398213744E0,3.198653460E0,9.201677123E0
8.363912317E0,-8.360552788E0,1.599326730E0,2.394201756E0,8.842448244E0
8.368947704E0,-8.025363922E0,1.867477298E0,1.685518026E0,8.410404780E0
8.373983092E0,-7.680599213E0,2.126051188E0,9.672574997E-1,8.027906638E0
8.378987962E0,-7.326257229E0,2.442085743E0,3.256114423E-1,7.729414633E0
8.384023349E0,-7.029376030E0,2.700659513E0,-3.351882398E-1,7.537774229E0
8.389058736E0,-6.943184853E0,2.959233284E0,-6.416460276E-1,7.574733471E0
8.394094125E0,-7.000645638E0,3.246537447E0,-7.374141216E-1,7.751956161E0
8.399098995E0,-7.278373241E0,3.543418407E0,-5.458779931E-1,8.113477296E0
8.404134382E0,-7.479485989E0,3.888183594E0,-1.819593310E-1,8.431713439E0
8.409169769E0,-7.824251175E0,4.185064793E0,4.884171486E-1,8.886631819E0
8.414205157E0,-8.034940720E0,4.673481941E0,1.197100878E0,9.372019864E0
8.419210027E0,-8.360552788E0,5.142745018E0,2.106897593E0,1.003920747E1
