"Time (s)","Acceleration x (m/s^2)","Acceleration y (m/s^2)","Acceleration z (m/s^2)","Absolute acceleration (m/s^2)"
1.106705300E-2,-4.855441093E0,5.995080948E0,5.956773758E0,9.746766509E0
1.607193900E-2,-4.740519524E0,5.937620163E0,5.793968201E0,9.554994823E0
2.110734200E-2,-4.644751072E0,5.746084213E0,5.631162167E0,9.289843037E0
2.614274600E-2,-4.472368717E0,5.401319027E0,5.449203014E0,8.880886367E0
3.117814900E-2,-4.367023945E0,5.123591423E0,5.123591423E0,8.460099070E0
3.621355100E-2,-4.386177540E0,4.960785866E0,4.788403511E0,8.171704718E0
4.121843700E-2,-4.453215122E0,4.979939461E0,4.711789131E0,8.175076683E0
4.625384100E-2,-4.596867085E0,5.142745018E0,4.730942726E0,8.364259225E0
5.128924400E-2,-4.845864296E0,5.430049419E0,4.893748283E0,8.770211499E0
5.632464700E-2,-4.797980309E0,5.640739441E0,5.228936672E0,9.065337015E0
6.136005100E-2,-4.673481941E0,5.650316238E0,5.870582581E0,9.393148933E0
6.636493600E-2,-4.347870350E0,5.592854977E0,6.665457726E0,9.726886967E0
7.140033900E-2,-3.964797974E0,5.343858242E0,7.393294811E0,9.946720668E0
7.643574200E-2,-3.485957623E0,5.066130638E0,7.987056732E0,1.008021108E1
8.147114600E-2,-3.035847664E0,4.979939461E0,8.331821442E0,1.017032038E1
8.650654900E-2,-2.691082716E0,4.874594688E0,8.858546257E0,1.046314682E1
9.151143400E-2,-2.470816135E0,4.826710701E0,9.145850182E0,1.063243359E1
9.654683700E-2,-2.336740971E0,4.817133904E0,9.672574997E0,1.105548934E1
1.015822410E-1,-2.279279947E0,4.893748283E0,1.010353088E1,1.145535795E1
1.066176440E-1,-2.145204782E0,4.999093056E0,1.023760605E1,1.159316232E1
1.116530470E-1,-2.164358377E0,5.018246651E0,1.043871975E1,1.178278900E1
1.166579330E-1,-2.221819162E0,5.008669853E0,1.037168217E1,1.173009143E1
1.216933360E-1,-2.355894566E0,5.104437828E0,1.016099167E1,1.161254823E1
1.267287390E-1,-2.528276920E0,5.152322292E0,1.001733971E1,1.154494279E1
1.317641420E-1,-2.806004286E0,5.171475887E0,9.969455719E0,1.157617684E1
1.367995460E-1,-3.303998232E0,4.951209068E0,1.000776291E1,1.164414849E1
1.418044320E-1,-3.600879431E0,4.797980309E0,1.003649330E1,1.169265348E1
1.468398340E-1,-3.648763418E0,4.740519524E0,9.911994934E0,1.157728999E1
1.518752370E-1,-3.313575268E0,4.912901878E0,9.988609314E0,1.161415955E1
1.569106410E-1,-2.863465309E0,5.200206280E0,1.018972206E1,1.179287983E1
1.619460440E-1,-2.528276920E0,5.401319027E0,1.021845245E1,1.183144970E1
1.669509300E-1,-2.346317768E0,5.334281445E0,1.012268448E1,1.168026141E1
1.719863320E-1,-2.308010340E0,5.257667065E0,9.873687744E0,1.142189495E1
1.770217360E-1,-2.260126352E0,5.133168221E0,9.672574997E0,1.118106856E1
1.820571390E-1,-2.298433542E0,5.085284233E0,9.586383820E0,1.109241485E1
1.870925430E-1,-2.470816135E0,5.046977043E0,9.653421402E0,1.116984576E1
1.920974280E-1,-2.633621931E0,5.056553841E0,9.720458984E0,1.126907379E1
1.971328320E-1,-2.777273893E0,5.094861031E0,9.605537415E0,1.122217484E1
2.021682340E-1,-2.806004286E0,4.970362663E0,9.423578262E0,1.101734961E1
2.072036380E-1,-2.758120298E0,4.941632271E0,9.279925346E0,1.086940530E1
2.122390410E-1,-2.777273893E0,4.807557106E0,9.184157372E0,1.073194308E1
2.172744440E-1,-2.806004286E0,4.606443882E0,8.906430244E0,1.041237173E1
2.222793300E-1,-2.968810081E0,4.558559895E0,8.676587105E0,1.024096994E1
2.273147330E-1,-2.940079689E0,4.501099110E0,8.283937454E0,9.875605375E0
2.323501360E-1,-2.815581083E0,4.376600742E0,7.738059998E0,9.325218679E0
2.373855390E-1,-2.719813108E0,4.232948780E0,7.125144482E0,8.722552528E0
2.424209430E-1,-2.652775526E0,4.185064793E0,6.473921299E0,8.152523676E0
2.474258290E-1,-2.624045134E0,4.165910721E0,5.975927353E0,7.742876257E0
2.524612320E-1,-2.499546528E0,4.213795185E0,5.516240597E0,7.377852874E0
2.574966340E-1,-2.365471363E0,4.328716755E0,5.085284233E0,7.084727182E0
2.625320380E-1,-2.202665567E0,4.405331135E0,4.663905144E0,6.783117956E0
2.675674410E-1,-2.106897593E0,4.338293552E0,4.280832767E0,6.448669444E0
2.725723270E-1,-2.039859772E0,4.223371983E0,3.801992416E0,6.037635723E0
2.776077300E-1,-2.059013367E0,4.031835556E0,3.620033026E0,5.796539753E0
2.826431330E-1,-2.135627985E0,3.782838583E0,3.198653460E0,5.394641655E0
2.876785360E-1,-2.001552582E0,3.677493811E0,3.141192675E0,5.234239666E0
2.927139390E-1,-1.532289028E0,3.916913986E0,3.361459255E0,5.384192898E0
2.977188250E-1,-9.385270476E-1,4.031835556E0,3.495534420E0,5.418052404E0
3.027542290E-1,-5.171475410E-1,3.974374771E0,3.265691042E0,5.169896941E0
3.077896320E-1,-2.489969730E-1,3.706224203E0,2.604891539E0,4.536910542E0
3.128250340E-1,1.149216816E-1,2.815581083E0,1.781286120E0,3.333719255E0
3.178604380E-1,9.481038451E-1,2.566584110E0,1.331176162E0,3.042742985E0
3.228653240E-1,1.120486379E0,2.250549555E0,1.283292055E0,2.822640877E0
3.279007270E-1,1.063025594E0,1.915361404E0,5.650315881E-1,2.262276159E0
3.329361300E-1,7.086837292E-1,7.852981687E-1,2.298433632E-1,1.082475780E0
3.379715330E-1,4.788403511E-1,2.394201756E-1,-4.118026793E-1,6.754195355E-1
3.430069360E-1,3.734954596E-1,1.340752989E-1,-7.469909191E-1,8.458548796E-1
3.480118220E-1,4.788403213E-2,-1.244984865E-1,2.011129409E-1,2.413279277E-1
3.530472250E-1,5.746084079E-2,-1.915361285E-1,9.576806426E-2,2.217190991E-1
3.580826290E-1,1.915361360E-2,-9.576806426E-2,1.244984865E-1,1.582348135E-1
3.631180320E-1,4.788403213E-2,-1.340752989E-1,8.619125932E-2,1.664271597E-1
3.681534350E-1,6.703764945E-2,-4.788403213E-2,9.576806426E-2,1.263267553E-1
3.731583200E-1,3.830722719E-2,-1.149216816E-1,9.576806426E-2,1.544213673E-1
3.781937240E-1,9.576806799E-3,-1.436520964E-1,7.661445439E-2,1.630871382E-1
3.832291270E-1,7.661445439E-2,-8.619125932E-2,1.340752989E-1,1.768470910E-1
3.882645310E-1,0.000000000E0,-7.661445439E-2,2.873042040E-2,8.182427316E-2
3.932999330E-1,8.619125932E-2,-1.436520964E-1,1.532289088E-1,2.270329414E-1
3.983048190E-1,3.830722719E-2,-7.661445439E-2,7.661445439E-2,1.149216816E-1
4.033402220E-1,6.703764945E-2,-5.746084079E-2,6.703764945E-2,1.108595558E-1
4.083756260E-1,-1.915361360E-2,-1.628057212E-1,1.340752989E-1,2.117752335E-1
4.134110290E-1,4.788403213E-2,-1.436520964E-1,1.244984865E-1,1.960323404E-1
4.184464320E-1,1.915361360E-2,-1.723825186E-1,1.436520964E-1,2.252077229E-1
4.234513170E-1,5.746084079E-2,-1.532289088E-1,1.053448766E-1,1.946237132E-1
4.284867210E-1,9.576806799E-3,-1.149216816E-1,1.149216816E-1,1.628057156E-1
4.335221240E-1,1.053448766E-1,-1.149216816E-1,2.011129409E-1,2.544620815E-1
4.385575270E-1,-1.915361360E-2,-1.436520964E-1,2.202665508E-1,2.636667197E-1
4.435929310E-1,4.788403213E-2,-1.053448766E-1,1.819593310E-1,2.156377094E-1
4.485978160E-1,2.873042040E-2,-1.053448766E-1,1.628057212E-1,1.960323518E-1
4.536332190E-1,3.830722719E-2,-8.619125932E-2,1.915361285E-1,2.135005044E-1
4.586686220E-1,6.703764945E-2,-2.873042040E-2,2.298433632E-1,2.411378342E-1
4.637040260E-1,3.830722719E-2,-8.619125932E-2,1.723825186E-1,1.964996427E-1
4.687394290E-1,7.661445439E-2,-1.149216816E-1,1.915361285E-1,2.361416017E-1
4.737443150E-1,-9.576806799E-3,-1.149216816E-1,2.011129409E-1,2.318299444E-1
4.787797170E-1,-1.915361360E-2,-9.576806426E-2,2.298433632E-1,2.497325662E-1
4.838151210E-1,5.746084079E-2,-8.619125932E-2,2.011129409E-1,2.262235541E-1
4.888505240E-1,4.788403213E-2,-1.244984865E-1,2.011129409E-1,2.413279277E-1
4.938859270E-1,9.576806799E-3,-3.830722719E-2,2.873041928E-1,2.900049277E-1
4.988908130E-1,0.000000000E0,-1.340752989E-1,3.160346150E-1,3.432987965E-1
5.039262160E-1,2.873042040E-2,-1.340752989E-1,2.777273953E-1,3.097323505E-1
5.089616190E-1,7.661445439E-2,-1.053448766E-1,3.447650373E-1,3.685515549E-1
5.139970220E-1,9.576806799E-3,-1.149216816E-1,3.064578176E-1,3.274371727E-1
5.190324260E-1,1.915361360E-2,-1.149216816E-1,2.968810201E-1,3.189234922E-1
5.240373120E-1,4.788403213E-2,-1.149216816E-1,2.873041928E-1,3.131191029E-1
5.290727140E-1,4.788403213E-2,-8.619125932E-2,2.777273953E-1,2.947105696E-1
5.341081170E-1,5.746084079E-2,-1.053448766E-1,2.873041928E-1,3.113566933E-1
5.391435210E-1,0.000000000E0,-5.746084079E-2,3.064578176E-1,3.117982395E-1
5.441789240E-1,2.873042040E-2,-1.244984865E-1,3.447650373E-1,3.676795359E-1
5.491838100E-1,1.915361360E-2,-1.436520964E-1,2.968810201E-1,3.303651401E-1
5.542192130E-1,2.873042040E-2,-7.661445439E-2,3.543418646E-1,3.636665625E-1
5.592546160E-1,2.873042040E-2,-7.661445439E-2,3.926490843E-1,4.010841746E-1
5.642900190E-1,2.873042040E-2,-1.244984865E-1,3.830722570E-1,4.038188509E-1
5.693254230E-1,-2.873042040E-2,-7.661445439E-2,3.639186621E-1,3.730040272E-1
5.743303080E-1,4.788403213E-2,-7.661445439E-2,3.351882398E-1,3.471509920E-1
5.793657120E-1,-9.576806799E-3,-5.746084079E-2,4.118026793E-1,4.159025248E-1
5.844011140E-1,5.746084079E-2,-4.788403213E-2,3.926490843E-1,3.997098100E-1
5.894365180E-1,-9.576806799E-3,-6.703764945E-2,5.171475410E-1,5.215624036E-1
5.944719210E-1,0.000000000E0,-2.873042040E-2,7.469909191E-1,7.475432230E-1
5.994768070E-1,1.450886250E1,-2.308010340E0,1.818635559E1,2.337899768E1
6.045122100E-1,5.241386414E1,-8.465897560E0,5.022077560E1,7.308221998E1
6.095476140E-1,7.411490631E1,-1.737232780E1,7.283161926E1,1.053530345E2
6.145830160E-1,6.276639175E1,-1.910573006E1,7.766790009E1,1.016707999E2
6.196184190E-1,3.886268234E1,-9.011775017E0,7.837658691E1,8.794549189E1
6.246233050E-1,1.318726254E1,4.922478676E0,7.837658691E1,7.963054732E1
6.296587090E-1,-8.561665535E0,1.539950562E1,6.968084717E1,7.187396853E1
6.346941120E-1,-2.566584206E1,2.134670258E1,4.589205933E1,5.674943408E1
6.397295140E-1,-2.934333611E1,2.138500977E1,2.536896133E1,4.429372659E1
6.447649180E-1,-2.715982437E1,1.840662193E1,1.361821938E1,3.552345267E1
6.497698040E-1,-2.569457245E1,1.424071217E1,7.805097580E0,3.039619194E1
6.548052070E-1,-2.649902534E1,1.194227791E1,9.011775017E0,3.043071532E1
6.598406100E-1,-2.579034042E1,1.025675964E1,1.451843929E1,3.132296054E1
6.648760140E-1,-2.284068489E1,8.140285492E0,2.025494576E1,3.159468249E1
6.699114160E-1,-1.549527359E1,6.703764915E0,2.564668846E1,3.070499303E1
6.749163020E-1,-6.253654957E0,5.497087002E0,2.632664108E1,2.761192128E1
6.799517050E-1,1.340752959E0,4.721365929E0,2.175850487E1,2.230518883E1
6.849871090E-1,4.922478676E0,4.146757126E0,1.464293766E1,1.599506218E1
6.900225120E-1,6.397306919E0,3.189076662E0,8.743624687E0,1.129365833E1
6.950273970E-1,6.282385349E0,1.886630893E0,5.267243862E0,8.412585792E0
7.000628000E-1,4.941632271E0,9.576807022E-1,3.160346270E0,5.943456097E0
7.050982040E-1,3.447650433E0,4.213795066E-1,1.991975784E0,4.003975739E0
7.101336070E-1,1.838746905E0,4.788403213E-2,1.532289028E0,2.393990962E0
7.151384930E-1,7.565677166E-1,-2.011129409E-1,5.746083856E-1,9.710900687E-1
7.201738960E-1,2.585737705E-1,-3.734954596E-1,1.436520964E-1,4.764401095E-1
7.252092990E-1,1.915361285E-1,-3.926490843E-1,-1.723825186E-1,4.696542608E-1
7.302447020E-1,1.819593310E-1,-3.639186621E-1,-1.915361360E-2,4.073240131E-1
7.352801050E-1,1.149216816E-1,-3.734954596E-1,-1.915361360E-2,3.912450794E-1
7.402849910E-1,1.436520964E-1,-3.734954596E-1,-2.873042040E-2,4.011984798E-1
7.453203950E-1,8.619125932E-2,-3.256114423E-1,9.576806799E-3,3.369621044E-1
7.503557970E-1,1.340752989E-1,-3.447650373E-1,2.873042040E-2,3.710317423E-1
7.553912000E-1,1.436520964E-1,-3.734954596E-1,1.915361360E-2,4.006265643E-1
7.603960860E-1,1.723825186E-1,-3.543418646E-1,3.830722719E-2,3.959057128E-1
7.654314900E-1,1.149216816E-1,-3.064578176E-1,6.703764945E-2,3.340919533E-1
7.704668930E-1,1.149216816E-1,-3.639186621E-1,4.788403213E-2,3.846253580E-1
7.755022960E-1,1.532289088E-1,-3.447650373E-1,1.149216816E-1,3.943970364E-1
7.805376990E-1,1.819593310E-1,-2.968810201E-1,7.661445439E-2,3.565351495E-1
7.855425850E-1,5.267243981E-1,-3.447650373E-1,1.149216771E0,1.310343737E0
7.905779880E-1,9.385270476E-1,-1.532289088E-1,3.045424461E0,3.190442331E0
7.956133910E-1,1.819593310E0,-1.149216816E-1,5.200206280E0,5.510560059E0
8.006487950E-1,3.275267839E0,-2.202665508E-1,7.278373241E0,7.984398150E0
8.056841970E-1,4.893748283E0,-2.298433632E-1,9.557653427E0,1.074012753E1
8.106890830E-1,6.512228489E0,-2.681505978E-1,1.114740276E1,1.291300170E1
8.157244860E-1,8.063671112E0,-3.064578176E-1,1.192312431E1,1.439713866E1
8.207598900E-1,9.078812599E0,-4.788403511E-1,1.154005241E1,1.469104952E1
8.257952930E-1,9.021351814E0,-6.607996821E-1,1.021845245E1,1.364691230E1
8.308001780E-1,8.034940720E0,-7.565677166E-1,8.283937454E0,1.156530531E1
8.358355810E-1,6.301538944E0,-8.331822157E-1,6.598419666E0,9.162026400E0
8.408709850E-1,4.577713490E0,-8.236053586E-1,5.133168221E0,6.926990873E0
8.459063880E-1,3.256114244E0,-9.289502501E-1,4.031835556E0,5.265066618E0
8.509417920E-1,2.355894566E0,-9.002198577E-1,3.256114244E0,4.118605950E0
8.559466770E-1,1.589749932E0,-9.385270476E-1,2.355894566E0,2.993054806E0
8.609820800E-1,9.864110947E-1,-1.015141487E0,1.896207690E0,2.366246541E0
8.660174830E-1,7.086837292E-1,-1.082179189E0,1.570596337E0,2.034727815E0
8.710528870E-1,6.607996821E-1,-1.130063176E0,1.608903527E0,2.074191303E0
8.760577720E-1,6.607996821E-1,-1.139639974E0,1.752555609E0,2.192461323E0
8.810931760E-1,5.554547906E-1,-7.086837292E-1,5.018246651E0,5.098388186E0
8.861285780E-1,-7.565677166E-1,6.320692301E-1,1.323514652E1,1.327181260E1
8.911639820E-1,-2.317587137E0,2.059013367E0,2.050394249E1,2.073698155E1
8.961993850E-1,-4.290409565E0,4.041412354E0,2.258211136E1,2.333864566E1
9.012042710E-1,-6.761225700E0,6.358999729E0,2.253422546E1,2.437093285E1
9.062396740E-1,-8.015787125E0,8.121131897E0,1.928768921E1,2.241027848E1
9.112750770E-1,-7.939172745E0,9.548076630E0,1.522712326E1,1.964844813E1
9.163104800E-1,-8.293514252E0,1.083136845E1,1.022802925E1,1.705032268E1
9.213153660E-1,-7.680599213E0,1.101332760E1,6.550535679E0,1.493969567E1
9.263507690E-1,-6.358999729E0,1.045787334E1,4.730942726E0,1.312195913E1
9.313861720E-1,-5.793968201E0,9.911994934E0,5.880159378E0,1.289937926E1
9.364215760E-1,-5.123591423E0,8.322244644E0,8.791508675E0,1.314540109E1
9.414569780E-1,-5.334281445E0,7.029376030E0,1.085052204E1,1.398572538E1
9.464618640E-1,-5.257667065E0,5.793968201E0,1.203804588E1,1.435714732E1
9.514972670E-1,-4.548983097E0,4.692635536E0,1.228704357E1,1.391709435E1
9.565326710E-1,-3.926490784E0,4.098873138E0,1.244027233E1,1.367400697E1
9.615680740E-1,-3.438073635E0,3.476380825E0,1.169328117E1,1.267432044E1
9.665729600E-1,-2.422932148E0,2.719813108E0,1.093671322E1,1.152734486E1
9.716083620E-1,-2.193088770E0,2.643198729E0,1.030464458E1,1.086194448E1
9.766437660E-1,-1.781286120E0,2.164358377E0,8.868123055E0,9.300593204E0
9.816791690E-1,-1.206677675E0,1.752555609E0,7.632715225E0,7.923753144E0
9.867145730E-1,-1.053448796E0,1.503558636E0,6.809109688E0,7.052263302E0
9.917194580E-1,-1.110909581E0,1.455674648E0,6.186617374E0,6.451925551E0
9.967548610E-1,-5.171475410E-1,9.959878922E-1,5.123591423E0,5.245056962E0
1.001790264E0,-3.543418646E-1,8.140285611E-1,4.606443882E0,4.691217954E0
1.006825668E0,-2.106897533E-1,6.607996821E-1,3.897760391E0,3.958987555E0
1.011861071E0,-8.619125932E-2,7.182605267E-1,3.629609823E0,3.700999134E0
1.016865957E0,0.000000000E0,6.320692301E-1,3.284844637E0,3.345103257E0
1.021901360E0,5.746084079E-2,7.374141216E-1,3.677493811E0,3.751138769E0
1.026936763E0,-1.915361360E-2,8.236053586E-1,4.060565948E0,4.143294398E0
1.031972166E0,-1.340752989E-1,1.024718285E0,5.085284233E0,5.189233034E0
1.037007569E0,-7.278373241E-1,1.493981838E0,6.675034523E0,6.878794574E0
1.042012455E0,-8.236053586E-1,1.647210717E0,8.207323074E0,8.411407788E0
1.047047859E0,-1.082179189E0,1.953668594E0,9.624691010E0,9.880415467E0
1.052083261E0,-1.810016513E0,2.480392933E0,1.141555405E1,1.182131055E1
1.057118664E0,-2.327163935E0,2.825158119E0,1.225831223E1,1.279310084E1
1.062123550E0,-2.413355350E0,2.700659513E0,1.341710663E1,1.389735932E1
1.067158954E0,-2.892195702E0,3.083731890E0,1.355118179E1,1.419537694E1
1.072194357E0,-3.055001259E0,3.074155092E0,1.335006905E1,1.403594691E1
1.077229760E0,-2.911349297E0,2.978386879E0,1.288080502E1,1.353742520E1
1.082234645E0,-2.863465309E0,2.987963676E0,1.233492756E1,1.301068017E1
1.087270049E0,-2.470816135E0,2.844311714E0,1.122401714E1,1.183949333E1
1.092305452E0,-2.298433542E0,2.729389906E0,1.008437729E1,1.069705713E1
1.097340855E0,-1.972822189E0,2.365471363E0,8.753201485E0,9.279332863E0
1.102376259E0,-1.723825216E0,2.097320795E0,7.862558365E0,8.318061790E0
1.107381144E0,-1.302445769E0,1.695094824E0,6.904877663E0,7.228211880E0
1.112416547E0,-8.714894056E-1,1.254561663E0,5.880159378E0,6.075334811E0
1.117451950E0,-9.002198577E-1,9.481038451E-1,5.267243862E0,5.427076063E0
1.122487354E0,-7.757213712E-1,6.320692301E-1,4.740519524E0,4.844974769E0
1.127492240E0,-6.895300746E-1,2.777273953E-1,4.012681961E0,4.080955862E0
1.132527642E0,-6.224924326E-1,-9.576806799E-3,3.667917013E0,3.720376830E0
1.137563045E0,-5.650315881E-1,-2.298433632E-1,3.217807055E0,3.275113877E0
1.142598449E0,-4.692635238E-1,-5.171475410E-1,2.806004286E0,2.891592967E0
1.147603334E0,-3.926490843E-1,-7.852981687E-1,2.145204782E0,2.317923656E0
1.152638738E0,-2.968810201E-1,-1.082179189E0,1.398213744E0,1.792833459E0
1.157674141E0,-2.489969730E-1,-1.197100878E0,9.002198577E-1,1.518369453E0
1.162709544E0,-1.723825186E-1,-1.398213744E0,3.830722570E-1,1.459952657E0
1.167714429E0,4.884171486E-1,8.331822157E-1,-9.672574997E-1,1.366869045E0
1.172749833E0,3.926490784E0,5.250963211E1,-3.228341675E1,6.176485887E1
1.177785236E0,4.520252705E0,7.837658691E1,-1.908657646E1,8.079368454E1
1.182820640E0,1.082179189E0,7.176859283E1,1.522712231E0,7.179290133E1
1.187856042E0,1.915361360E-2,5.391742229E0,2.480392933E0,5.934947366E0
1.192860928E0,2.873042040E-2,-6.895300746E-1,-3.064578176E-1,7.551116174E-1
1.197896331E0,9.576806799E-3,-7.757213712E-1,7.661445439E-2,7.795544468E-1
1.202931735E0,9.576806799E-3,-7.757213712E-1,-5.746084079E-2,7.779055914E-1
1.207967138E0,2.873042040E-2,-7.661445141E-1,-2.873042040E-2,7.672211484E-1
1.212972024E0,-4.788403213E-2,-7.852981687E-1,1.915361360E-2,7.869898063E-1
1.218007426E0,0.000000000E0,-7.374141216E-1,7.661445439E-2,7.413834105E-1
1.223042830E0,2.873042040E-2,-7.757213712E-1,9.576806426E-2,7.821384819E-1
1.228078233E0,4.788403213E-2,-7.374141216E-1,2.873042040E-2,7.395254589E-1
1.233083119E0,-1.915361360E-2,-7.469909191E-1,9.576806799E-3,7.472978050E-1
1.238118522E0,-9.576806799E-3,-7.278373241E-1,1.915361360E-2,7.281522825E-1
1.243153925E0,3.830722719E-2,-7.565677166E-1,7.661445439E-2,7.614012924E-1
1.248189328E0,3.830722719E-2,-7.757213712E-1,1.915361285E-1,7.999357336E-1
1.253194214E0,1.723825186E-1,-6.991068721E-1,1.082179189E0,1.299837662E0
1.258229617E0,1.551442742E0,-2.681505978E-1,6.512228489E0,6.699850686E0
1.263265021E0,2.777273893E0,6.799532771E-1,1.309149456E1,1.340010510E1
1.268300424E0,3.160346270E0,1.493981838E0,1.940261078E1,1.971499620E1
1.273305309E0,3.466804028E0,2.135627985E0,2.383667183E1,2.418194700E1
1.278340712E0,2.786850691E0,2.327163935E0,2.587653160E1,2.613000414E1
1.283376116E0,2.049436569E0,2.336740971E0,2.542642212E1,2.561568836E1
1.288411519E0,8.427590132E-1,1.934514999E0,2.226607513E1,2.236583763E1
1.293446922E0,-1.244984865E-1,1.206677675E0,1.733402061E1,1.737641625E1
1.298451807E0,-6.991068721E-1,6.129156351E-1,1.266053867E1,1.269463097E1
1.303487211E0,-1.331176162E0,1.244984865E0,6.876147270E0,7.113607985E0
1.308522614E0,-4.175487995E0,1.487278080E1,-1.656787491E1,2.265234619E1
1.313558017E0,-1.244984865E0,4.548983383E1,-2.543599892E1,5.213314694E1
1.318562903E0,2.557007313E0,3.808695984E1,-7.182605267E-1,3.817945382E1
1.323598307E0,2.355894566E0,1.513135433E1,1.340752983E1,2.035362325E1
1.328633709E0,1.158793569E0,5.238513470E0,1.635718536E1,1.721459668E1
1.333669112E0,1.206677675E0,2.202665567E0,1.635718536E1,1.654887669E1
1.338673998E0,2.624045134E0,1.838746905E0,1.488235760E1,1.522337580E1
1.343709402E0,2.710236311E0,2.547430515E0,1.197100830E1,1.253554238E1
1.348744805E0,1.388636947E0,3.131615877E0,8.628703117E0,9.283848774E0
1.353780207E0,6.512228847E-1,3.878606796E0,5.439626217E0,6.712467155E0
1.358785093E0,9.576806799E-3,5.564124584E0,2.365471363E0,6.046075494E0
1.363820497E0,-9.576806799E-3,7.661445618E0,2.681505978E-1,7.666142799E0
1.368855900E0,4.692635238E-1,9.605537415E0,-2.489969730E-1,9.620216046E0
1.373891303E0,5.746083856E-1,1.088882923E1,3.064578176E-1,1.090828553E1
1.378896188E0,-1.053448766E-1,1.164539719E1,2.461239338E0,1.190311187E1
1.383931591E0,-1.082179189E0,1.088882923E1,4.826710701E0,1.195971781E1
1.388966995E0,-2.068590164E0,9.050082207E0,7.364564419E0,1.184988870E1
1.394002398E0,-8.044517636E-1,7.115567684E0,8.935160637E0,1.145056949E1
1.399037802E0,2.873042040E-2,5.516240597E0,7.805097580E0,9.557681936E0
1.404042687E0,7.086837292E-1,5.592854977E0,8.293514252E0,1.002819216E1
1.409078090E0,5.937620401E-1,6.780379295E0,9.701305389E0,1.185079841E1
1.414113493E0,3.926490843E-1,7.182605267E0,9.308655739E0,1.176414312E1
1.419148897E0,-7.661445439E-2,7.268796444E0,8.753201485E0,1.137804059E1
1.424184300E0,-2.202665508E-1,7.354987621E0,8.006210327E0,1.087399485E1
1.429189186E0,-1.340752989E-1,7.326257229E0,7.010222435E0,1.014077116E1
1.434224588E0,1.819593310E-1,7.431602001E0,6.023811340E0,9.568078207E0
1.439259992E0,3.160346150E-1,7.460332394E0,5.564124584E0,9.312138298E0
1.444295395E0,2.298433632E-1,7.450755596E0,5.219359875E0,9.099906836E0
1.449300281E0,5.746084079E-2,7.307103634E0,5.420472622E0,9.098273941E0
1.454335684E0,-8.619125932E-2,7.077260017E0,5.956773758E0,9.250848171E0
1.459371088E0,2.873042040E-2,6.847416878E0,6.406883717E0,9.377425142E0
1.464406490E0,2.298433632E-1,6.789956093E0,6.742072105E0,9.571408882E0
1.469441893E0,3.064578176E-1,6.924031258E0,6.933608055E0,9.803624121E0
1.474477297E0,2.106897533E-1,7.307103634E0,7.000645638E0,1.012162008E1
1.479482183E0,9.576806426E-2,7.354987621E0,6.952761650E0,1.012155665E1
1.484517586E0,1.436520964E-1,7.402871609E0,6.828263283E0,1.007215585E1
1.489552988E0,1.340752989E-1,7.230489254E0,6.579266071E0,9.776742457E0
1.494588392E0,5.746084079E-2,7.144298077E0,6.540958881E0,9.686508135E0
1.499623795E0,1.915361360E-2,7.086836815E0,6.493074894E0,9.611641092E0
1.504628681E0,-6.703764945E-2,7.105990410E0,6.483498096E0,9.619529163E0
1.509664084E0,4.788403213E-2,7.048529625E0,6.454767704E0,9.557619414E0
1.514699488E0,1.149216816E-1,7.058106422E0,6.483498096E0,9.584665922E0
1.519734890E0,1.053448766E-1,7.105990410E0,6.540958881E0,9.658692475E0
1.524770294E0,1.053448766E-1,7.211335659E0,6.665457726E0,9.820528816E0
1.529775179E0,4.788403213E-2,7.249642849E0,6.684611320E0,9.861219135E0
1.534810583E0,4.788403213E-2,7.278373241E0,6.607996464E0,9.830698204E0
1.539845986E0,1.340752989E-1,7.077260017E0,6.627150536E0,9.696633940E0
1.544881389E0,1.436520964E-1,7.163451672E0,6.493074894E0,9.669317316E0
1.549916792E0,1.149216816E-1,7.067683220E0,6.473921299E0,9.585249609E0
1.554921678E0,1.723825186E-1,7.048529625E0,6.454767704E0,9.559053913E0
1.559957081E0,1.244984865E-1,7.163451672E0,6.607996464E0,9.746597201E0
1.564992485E0,1.532289088E-1,7.134721279E0,6.675034523E0,9.771581894E0
1.570027888E0,2.011129409E-1,7.086836815E0,6.694188118E0,9.750684951E0
1.575063290E0,1.532289088E-1,7.125144482E0,6.732495308E0,9.803961243E0
1.580068176E0,1.532289088E-1,7.163451672E0,6.607996464E0,9.747006526E0
1.585103579E0,1.436520964E-1,7.125144482E0,6.454767704E0,9.615214294E0
1.590138983E0,8.619125932E-2,7.201758862E0,6.493074894E0,9.697050129E0
1.595174386E0,6.703764945E-2,7.163451672E0,6.560112476E0,9.713630094E0
1.600179271E0,5.746084079E-2,7.182605267E0,6.569689274E0,9.734163411E0
1.605214674E0,6.703764945E-2,7.211335659E0,6.713341713E0,9.852756619E0
1.610250078E0,6.703764945E-2,7.240066051E0,6.684611320E0,9.854292414E0
1.615285481E0,6.703764945E-2,7.163451672E0,6.655880928E0,9.778562513E0
1.620320885E0,1.244984865E-1,7.182605267E0,6.550535679E0,9.721874098E0
1.625325769E0,8.619125932E-2,7.153874874E0,6.512228489E0,9.674423732E0
1.630361173E0,7.661445439E-2,7.086836815E0,6.579266071E0,9.670360275E0
1.635396576E0,1.053448766E-1,7.077260017E0,6.473921299E0,9.592203286E0
1.640431980E0,1.244984865E-1,7.086836815E0,6.598419666E0,9.683898905E0
1.645436865E0,1.053448766E-1,7.153874874E0,6.636727333E0,9.758851006E0
1.650472269E0,1.340752989E-1,7.153874874E0,6.646304131E0,9.765718637E0
1.655507671E0,1.723825186E-1,7.173028469E0,6.627150536E0,9.767352629E0
1.660543075E0,1.053448766E-1,7.220912457E0,6.598419666E0,9.782219397E0
1.665578478E0,1.149216816E-1,7.182605267E0,6.502651691E0,9.689556462E0
1.670583364E0,1.819593310E-1,7.125144482E0,6.560112476E0,9.686891596E0
1.675618767E0,9.576806426E-2,7.134721279E0,6.655880928E0,9.757774858E0
1.680654170E0,7.661445439E-2,7.134721279E0,6.569689274E0,9.699017201E0
1.685689573E0,8.619125932E-2,7.144298077E0,6.579266071E0,9.712629200E0
1.690724976E0,6.703764945E-2,7.144298077E0,6.521805286E0,9.673646326E0
1.695729862E0,1.915361360E-2,7.211335659E0,6.646304131E0,9.806991763E0
1.700765266E0,1.149216816E-1,7.163451672E0,6.655880928E0,9.779008016E0
1.705800669E0,1.340752989E-1,7.249642849E0,6.665457726E0,9.849041797E0
1.710836071E0,6.703764945E-2,7.192182064E0,6.665457726E0,9.806136017E0
1.715840957E0,1.436520964E-1,7.153874874E0,6.588842869E0,9.726839774E0
1.720876361E0,1.149216816E-1,7.182605267E0,6.569689274E0,9.734672186E0
1.725911764E0,8.619125932E-2,7.086836815E0,6.560112476E0,9.657419980E0
1.730947167E0,1.149216816E-1,7.144298077E0,6.598419666E0,9.725910965E0
1.735982570E0,1.244984865E-1,7.182605267E0,6.617573261E0,9.767169199E0
1.740987456E0,1.149216816E-1,7.086836815E0,6.655880928E0,9.723024939E0
1.746022859E0,1.532289088E-1,7.192182064E0,6.665457726E0,9.807103988E0
1.751058262E0,1.532289088E-1,7.163451672E0,6.655880928E0,9.779533214E0
1.756093666E0,2.106897533E-1,7.153874874E0,6.636727333E0,9.760556622E0
1.761129069E0,7.661445439E-2,7.173028469E0,6.579266071E0,9.733701723E0
1.766133954E0,9.576806426E-2,7.173028469E0,6.550535679E0,9.714475108E0
1.771169357E0,1.053448766E-1,7.201758862E0,6.540958881E0,9.729366440E0
1.776204761E0,4.788403213E-2,7.173028469E0,6.646304131E0,9.778956432E0
1.781240164E0,1.244984865E-1,7.173028469E0,6.598419666E0,9.747152373E0
1.786245050E0,7.661445439E-2,7.173028469E0,6.617573261E0,9.759635396E0
1.791280452E0,1.340752989E-1,7.211335659E0,6.636727333E0,9.801402342E0
1.796315856E0,1.244984865E-1,7.182605267E0,6.646304131E0,9.786658106E0
1.801351259E0,1.149216816E-1,7.134721279E0,6.588842869E0,9.712378961E0
1.806386662E0,1.340752989E-1,7.173028469E0,6.569689274E0,9.727853348E0
1.811391548E0,6.703764945E-2,7.163451672E0,6.588842869E0,9.733056264E0
1.816426952E0,4.788403213E-2,7.077260017E0,6.617573261E0,9.689281609E0
1.821462354E0,1.819593310E-1,7.163451672E0,6.569689274E0,9.721572208E0
1.826497757E0,1.053448766E-1,7.144298077E0,6.588842869E0,9.719307738E0
1.831533161E0,1.819593310E-1,7.192182064E0,6.627150536E0,9.781600905E0
1.836538047E0,7.661445439E-2,7.173028469E0,6.569689274E0,9.727231073E0
1.841573450E0,1.723825186E-1,7.153874874E0,6.636727333E0,9.759804872E0
1.846608852E0,1.340752989E-1,7.182605267E0,6.607996464E0,9.760810001E0
1.851644256E0,8.619125932E-2,7.163451672E0,6.550535679E0,9.707316131E0
1.856679659E0,1.149216816E-1,7.230489254E0,6.569689274E0,9.770056243E0
1.861684545E0,8.619125932E-2,7.153874874E0,6.607996464E0,9.739146365E0
1.866719948E0,3.160346150E-1,7.086836815E0,6.454767704E0,9.590993694E0
1.871755352E0,4.788403213E-2,7.163451672E0,6.339846134E0,9.566137242E0
1.876790754E0,6.703764945E-2,7.134721279E0,6.263231754E0,9.494040962E0
1.881826158E0,1.628057212E-1,7.077260017E0,6.349422932E0,9.509431456E0
1.886831043E0,8.619125932E-2,7.067683220E0,6.426037312E0,9.552671383E0
1.891866447E0,-2.011129409E-1,7.220912457E0,6.598419666E0,9.783719396E0
1.896901850E0,2.873042040E-2,7.182605267E0,6.713341713E0,9.831561463E0
1.901937253E0,2.873042040E-2,7.268796444E0,6.856993675E0,9.992726827E0
1.906942138E0,-2.873041928E-1,7.201758862E0,7.019799232E0,1.006108621E1
1.911977542E0,2.011129409E-1,7.220912457E0,7.220912457E0,1.021389249E1
1.917012945E0,9.576806799E-3,7.220912457E0,6.904877663E0,9.990946099E0
1.922048349E0,2.873042040E-2,7.297526836E0,6.742072105E0,9.935303701E0
1.927083752E0,2.394201756E-1,7.163451672E0,6.636727333E0,9.768239942E0
1.932088637E0,1.149216816E-1,7.067683220E0,6.483498096E0,9.591720422E0
1.937124040E0,-2.873042040E-2,7.115567684E0,6.311115742E0,9.511167689E0
1.942159444E0,1.149216816E-1,7.077260017E0,6.244078159E0,9.438714341E0
1.947194847E0,2.011129409E-1,7.173028469E0,6.378153324E0,9.600709539E0
1.952230250E0,8.619125932E-2,7.096413612E0,6.435614109E0,9.580378075E0
1.957235135E0,2.298433632E-1,7.125144482E0,6.426037312E0,9.597628217E0
1.962270539E0,5.746084079E-2,7.163451672E0,6.770802498E0,9.857084156E0
1.967305942E0,1.244984865E-1,7.134721279E0,6.732495308E0,9.810516840E0
1.972341345E0,1.532289088E-1,7.249642849E0,6.732495308E0,9.894811449E0
1.977376749E0,1.149216816E-1,7.163451672E0,6.636727333E0,9.765981596E0
1.982381634E0,1.149216816E-1,7.105990410E0,6.531382084E0,9.652318821E0
1.987417037E0,1.628057212E-1,7.077260017E0,6.569689274E0,9.657894813E0
1.992452440E0,9.576806426E-2,7.105990410E0,6.483498096E0,9.619772284E0
1.997487844E0,6.703764945E-2,7.134721279E0,6.579266071E0,9.705435787E0
2.002523247E0,7.661445439E-2,7.144298077E0,6.636727333E0,9.751564719E0
2.007558650E0,6.703764945E-2,7.125144482E0,6.665457726E0,9.757074593E0
2.012563535E0,8.619125932E-2,7.163451672E0,6.588842869E0,9.733207032E0
2.017598939E0,2.489969730E-1,7.153874874E0,6.636727333E0,9.761458646E0
2.022634342E0,1.340752989E-1,7.220912457E0,6.636727333E0,9.808450570E0
2.027669745E0,-7.661445439E-2,7.287950039E0,6.579266071E0,9.818697856E0
2.032705149E0,1.915361360E-2,7.201758862E0,6.378153324E0,9.620111090E0
2.037710034E0,1.915361285E-1,7.125144482E0,6.368576527E0,9.558406611E0
2.042745437E0,2.968810201E-1,7.010222435E0,6.598419666E0,9.631744339E0
2.047780840E0,1.915361285E-1,7.182605267E0,6.780379295E0,9.879273652E0
2.052816244E0,5.746084079E-2,7.182605267E0,6.837840080E0,9.917115363E0
2.057851647E0,0.000000000E0,7.211335659E0,6.675034523E0,9.826466703E0
2.062856533E0,0.000000000E0,7.249642849E0,6.502651691E0,9.738675498E0
2.067891935E0,-9.576806799E-3,7.153874874E0,6.493074894E0,9.661161370E0
2.072927339E0,2.968810201E-1,7.201758862E0,6.512228489E0,9.714040814E0
2.077962742E0,1.244984865E-1,7.105990410E0,6.617573261E0,9.710966762E0
2.082998146E0,8.619125932E-2,7.125144482E0,6.732495308E0,9.803142654E0
2.088003031E0,-2.873042040E-2,7.173028469E0,6.646304131E0,9.778881401E0
2.093038434E0,-2.873042040E-2,7.105990410E0,6.598419666E0,9.697168001E0
2.098073837E0,-2.873042040E-2,7.125144482E0,6.483498096E0,9.633496608E0
2.103109241E0,2.298433632E-1,7.163451672E0,6.426037312E0,9.626101150E0
2.108144644E0,1.915361285E-1,7.134721279E0,6.512228489E0,9.661783154E0
2.113149530E0,1.053448766E-1,7.163451672E0,6.694188118E0,9.805013613E0
2.118184933E0,1.915361360E-2,7.211335659E0,6.789956093E0,9.904909520E0
2.123220336E0,1.149216816E-1,7.134721279E0,6.828263283E0,9.876367459E0
2.128255739E0,2.873041928E-1,7.326257229E0,6.856993675E0,1.003867277E1
2.133291142E0,5.171475410E-1,7.450755596E0,7.259219646E0,1.041525182E1
2.138296028E0,8.331822157E-1,7.498639584E0,7.268796444E0,1.047660202E1
2.143331432E0,1.101332784E0,7.383718014E0,6.991068840E0,1.022776951E1
2.148366834E0,1.848323703E0,7.268796444E0,7.029376030E0,1.027929130E1
2.153402237E0,2.537853718E0,7.010222435E0,7.010222435E0,1.023362784E1
2.158437641E0,2.901772499E0,6.684611320E0,6.895300865E0,1.003242175E1
2.163442527E0,2.624045134E0,6.636727333E0,6.588842869E0,9.713115510E0
2.168477930E0,2.422932148E0,6.780379295E0,6.617573261E0,9.779387478E0
2.173513333E0,2.394201756E0,7.019799232E0,6.550535679E0,9.895418182E0
2.178548736E0,2.212242365E0,7.268796444E0,6.119579315E0,9.755955567E0
2.183584139E0,1.618480325E0,7.479485989E0,5.880159378E0,9.650827090E0
2.188589025E0,5.075707436E-1,7.565677166E0,6.416460514E0,9.933179983E0
2.193624428E0,-1.053448766E-1,7.450755596E0,6.358999729E0,9.796006026E0
2.198659832E0,-1.723825186E-1,7.182605267E0,6.732495308E0,9.846117368E0
2.203695234E0,-2.873041928E-1,6.722918510E0,6.627150536E0,9.444538169E0
2.208730637E0,-6.703764945E-2,6.205770969E0,6.924031258E0,9.298295340E0
2.213766041E0,3.830722570E-1,5.736507416E0,7.364564419E0,9.342969055E0
2.218770927E0,5.841852427E-1,5.353435040E0,7.412448406E0,9.162146610E0
2.223806330E0,9.002198577E-1,5.219359875E0,7.450755596E0,9.141437100E0
2.228841733E0,1.618480325E0,5.353435040E0,7.201758862E0,9.118337348E0
2.233877136E0,1.790862918E0,5.583278179E0,7.134721279E0,9.234957117E0
2.238912539E0,1.800439715E0,5.659893036E0,7.048529625E0,9.217252422E0
2.243917425E0,1.359906554E0,5.755661011E0,6.924031258E0,9.105997384E0
2.248952828E0,9.097966552E-1,5.813121796E0,7.192182064E0,9.292340814E0
2.253988232E0,1.101332784E0,5.640739441E0,7.067683220E0,9.109501712E0
2.259023634E0,6.607996821E-1,5.544970989E0,7.278373241E0,9.173771118E0
2.264059038E0,2.011129409E-1,5.650316238E0,7.115567684E0,9.088334472E0
2.269063923E0,-1.819593310E-1,5.650316238E0,7.240066051E0,9.185735639E0
2.274099327E0,-7.086837292E-1,5.487510204E0,7.316680431E0,9.173266234E0
2.279134730E0,-1.369483352E0,5.439626217E0,7.584830761E0,9.433698941E0
2.284170134E0,-1.886630893E0,5.439626217E0,7.958326340E0,9.822620202E0
2.289205536E0,-2.566584110E0,5.477933407E0,8.188169479E0,1.018043358E1
2.294210422E0,-3.332728863E0,5.659893036E0,8.398859978E0,1.066219113E1
2.299245825E0,-4.012681961E0,5.841852188E0,8.810662270E0,1.130737030E1
2.304281229E0,-4.510675907E0,6.004657745E0,8.772355080E0,1.154800093E1
2.309316632E0,-5.458779812E0,6.033388138E0,8.925583839E0,1.207750373E1
2.314352034E0,-5.985504150E0,6.148310184E0,8.992621422E0,1.242961054E1
2.319356920E0,-6.358999729E0,6.483498096E0,9.145850182E0,1.288872378E1
2.324392324E0,-6.473921299E0,6.809109688E0,9.356540680E0,1.325973172E1
2.329427727E0,-6.426037312E0,7.038952827E0,9.548076630E0,1.349098142E1
2.334463130E0,-6.368576527E0,7.287950039E0,9.749189377E0,1.373752803E1
2.339498533E0,-6.224924564E0,7.498639584E0,9.816226959E0,1.383248326E1
2.344503419E0,-6.416460514E0,7.632715225E0,9.777919769E0,1.396556559E1
2.349538822E0,-6.809109688E0,7.814674377E0,9.758766174E0,1.423610296E1
2.354574225E0,-7.096413612E0,7.852981567E0,9.998186111E0,1.455994956E1
2.359609629E0,-6.943184853E0,7.852981567E0,1.023760605E1,1.465215728E1
2.364645032E0,-6.627150536E0,7.671022415E0,1.036210537E1,1.449610074E1
2.369649917E0,-6.416460514E0,7.613561630E0,1.032379818E1,1.434287611E1
2.374685320E0,-6.110002518E0,7.565677166E0,1.040041256E1,1.423868615E1
2.379720724E0,-5.918466568E0,7.316680431E0,1.052491093E1,1.411863340E1
2.384756127E0,-5.851428986E0,6.971915245E0,1.063983250E1,1.400188769E1
2.389791530E0,-5.726930618E0,6.588842869E0,1.077390766E1,1.386678301E1
2.394796415E0,-5.363011837E0,6.435614109E0,1.092713642E1,1.376885381E1
2.399831819E0,-4.989516258E0,6.253654957E0,1.099417400E1,1.359688695E1
2.404867222E0,-4.529829502E0,6.148310184E0,1.096544361E1,1.336271032E1
2.409902625E0,-4.118026733E0,5.908889771E0,1.102290440E1,1.316729068E1
2.414938029E0,-3.811569214E0,5.698200226E0,1.104205799E1,1.299709931E1
2.419942915E0,-3.533841610E0,5.382165432E0,1.118570995E1,1.290642663E1
2.424978317E0,-3.313575268E0,5.267243862E0,1.126232433E1,1.286715152E1
2.430013720E0,-2.959233284E0,5.075707436E0,1.154005241E1,1.294962074E1
2.435049124E0,-2.652775526E0,4.932055473E0,1.173158836E1,1.299971364E1
2.440084527E0,-2.537853718E0,4.759673119E0,1.193270111E1,1.309521078E1
2.445089413E0,-2.499546528E0,4.577713490E0,1.206677628E1,1.314573251E1
2.450124815E0,-2.451662540E0,4.386177540E0,1.210508347E1,1.310657271E1
2.455160219E0,-2.480392933E0,4.280832767E0,1.213381386E1,1.310371386E1
2.460195622E0,-2.499546528E0,4.070142746E0,1.227746677E1,1.317383715E1
2.465231026E0,-2.461239338E0,3.945644379E0,1.234450436E1,1.319138342E1
2.470235911E0,-2.499546528E0,3.725377798E0,1.231577396E1,1.310742007E1
2.475271315E0,-2.729389906E0,3.581725836E0,1.222958183E1,1.303230605E1
2.480306717E0,-2.767697096E0,3.256114244E0,1.219127464E1,1.291857595E1
2.485342121E0,-2.959233284E0,2.968810081E0,1.232535076E1,1.301864687E1
2.490377524E0,-3.026270866E0,2.767697096E0,1.263180828E1,1.328085250E1
2.495382410E0,-3.007117271E0,2.547430515E0,1.294784260E1,1.353435571E1
2.500417813E0,-2.777273893E0,2.336740971E0,1.322556973E1,1.371456537E1
2.505453216E0,-2.671929121E0,2.173935175E0,1.341710663E1,1.385221822E1
2.510488619E0,-2.442085743E0,1.953668594E0,1.349372101E1,1.385139381E1
2.515524022E0,-2.528276920E0,1.771709204E0,1.364694977E1,1.399179673E1
2.520528908E0,-2.355894566E0,1.580173135E0,1.371398735E1,1.400430774E1
2.525564312E0,-2.279279947E0,1.436521053E0,1.375229454E1,1.401371881E1
2.530599715E0,-2.068590164E0,1.312022567E0,1.357991219E1,1.379907546E1
2.535635117E0,-1.877054095E0,1.187524080E0,1.343626022E1,1.361861352E1
2.540670521E0,-1.647210717E0,1.082179189E0,1.320641613E1,1.335267172E1
2.545675407E0,-1.465251446E0,9.289502501E-1,1.296699619E1,1.308254183E1
2.550710810E0,-1.283292055E0,8.714894056E-1,1.276588345E1,1.285978664E1
2.555746213E0,-7.757213712E-1,7.374141216E-1,1.250730991E1,1.255302053E1
2.560781616E0,-3.734954596E-1,8.331822157E-1,1.224873543E1,1.228272002E1
2.565817019E0,-1.436520964E-1,7.661445141E-1,1.202846909E1,1.205369993E1
2.570821905E0,3.830722719E-2,6.703764796E-1,1.174116516E1,1.176034997E1
2.575857308E0,1.053448766E-1,4.692635238E-1,1.159751320E1,1.160748113E1
2.580892712E0,1.915361285E-1,3.256114423E-1,1.153047562E1,1.153666229E1
2.585928115E0,2.968810201E-1,1.628057212E-1,1.154962921E1,1.155459125E1
2.590933000E0,3.830722570E-1,1.819593310E-1,1.159751320E1,1.160526458E1
2.595968403E0,4.979939461E-1,2.106897533E-1,1.149216843E1,1.150488258E1
2.601003807E0,5.171475410E-1,1.819593310E-1,1.131020927E1,1.132348818E1
2.606039210E0,4.309563041E-1,1.532289088E-1,1.115697956E1,1.116635103E1
2.611074613E0,2.106897533E-1,2.873042040E-2,1.089840603E1,1.090048025E1
2.616079498E0,-3.830722719E-2,-3.830722719E-2,1.068771648E1,1.068785379E1
2.621114902E0,-7.661445439E-2,-1.436520964E-1,1.039083576E1,1.039211112E1
2.626150305E0,-1.149216816E-1,-9.576806426E-2,1.013226128E1,1.013336554E1
2.631185708E0,-1.053448766E-1,-1.532289088E-1,9.854534149E0,9.856288345E0
2.636190594E0,1.915361360E-2,-2.489969730E-1,9.643844604E0,9.647077542E0
2.641225997E0,1.149216816E-1,-2.394201756E-1,9.337387085E0,9.341163021E0
2.646261400E0,2.873041928E-1,-2.777273953E-1,9.126696587E0,9.135440153E0
2.651296803E0,6.416460276E-1,-2.489969730E-1,8.839392662E0,8.866147515E0
2.656332207E0,8.044517636E-1,-2.394201756E-1,8.552088737E0,8.593176737E0
2.661337093E0,9.672574997E-1,-2.873041928E-1,8.370129585E0,8.430729508E0
2.666372496E0,1.091755986E0,-1.819593310E-1,8.245630264E0,8.319582849E0
2.671407898E0,1.321599364E0,-1.532289088E-1,8.092401505E0,8.201040549E0
2.676443302E0,1.455674648E0,-1.628057212E-1,7.996633530E0,8.129676635E0
2.681478705E0,1.407790542E0,-2.585737705E-1,7.996633530E0,8.123723433E0
2.686483591E0,1.292868972E0,-3.830722570E-1,8.044517517E0,8.156746693E0
2.691518994E0,1.350329757E0,-3.064578176E-1,8.121131897E0,8.238330543E0
2.696554397E0,1.398213744E0,-4.022258818E-1,8.149862289E0,8.278710206E0
2.701589800E0,1.474828243E0,-1.532289088E-1,8.207323074E0,8.340188816E0
2.706594686E0,1.359906554E0,-7.661445439E-2,8.283937454E0,8.395167381E0
2.711630089E0,1.187524080E0,-9.576806426E-2,8.322244644E0,8.407088728E0
2.716665493E0,1.034295082E0,-9.576806426E-2,8.370129585E0,8.434335013E0
2.721700896E0,1.005564690E0,-3.830722719E-2,8.312667847E0,8.373355034E0
2.726736299E0,9.289502501E-1,1.915361285E-1,8.197746277E0,8.252434712E0
2.731741184E0,7.374141216E-1,1.244984865E-1,8.130708694E0,8.165029292E0
2.736776588E0,4.979939461E-1,1.819593310E-1,8.082824707E0,8.100195208E0
2.741811991E0,4.309563041E-1,1.244984865E-1,7.987056732E0,7.999643645E0
2.746847395E0,4.501099288E-1,2.394201756E-1,7.948749542E0,7.965082564E0
2.751882797E0,5.363011956E-1,2.873041928E-1,7.967903137E0,7.991097739E0
2.756887683E0,5.458779931E-1,3.351882398E-1,7.987056732E0,8.012702989E0
2.761923086E0,6.224924326E-1,3.351882398E-1,8.121131897E0,8.151848335E0
2.766958490E0,8.044517636E-1,4.309563041E-1,8.197746277E0,8.248388327E0
2.771993893E0,1.130063176E0,5.267243981E-1,8.389283180E0,8.481424034E0
2.777029296E0,1.187524080E0,5.937620401E-1,8.427590370E0,8.531532468E0
2.782034181E0,1.005564690E0,6.033388376E-1,8.571242332E0,8.651090869E0
2.787069585E0,7.278373241E-1,6.607996821E-1,8.571242332E0,8.627432904E0
2.792104988E0,4.692635238E-1,6.703764796E-1,8.513781548E0,8.553016375E0
2.797140391E0,2.489969730E-1,6.512228847E-1,8.494627953E0,8.523191585E0
2.802175795E0,7.661445439E-2,7.948749661E-1,8.322244644E0,8.360469598E0
2.807180680E0,8.619125932E-2,8.140285611E-1,8.264783859E0,8.305222674E0
2.812216083E0,1.915361360E-2,8.619126081E-1,8.169015884E0,8.214382553E0
2.817251486E0,1.628057212E-1,9.864110947E-1,8.197746277E0,8.258483915E0
2.822286890E0,4.309563041E-1,1.005564690E0,8.111555099E0,8.184999072E0
2.827291775E0,8.236053586E-1,1.168370485E0,8.082824707E0,8.208256247E0
2.832327179E0,8.906430602E-1,1.197100878E0,8.054094315E0,8.191137333E0
2.837362581E0,8.140285611E-1,1.292868972E0,7.910442352E0,8.056627761E0
2.842397985E0,7.757213712E-1,1.292868972E0,7.996633530E0,8.137530438E0
2.847433388E0,7.661445141E-1,1.379060149E0,7.948749542E0,8.103789459E0
2.852438274E0,7.374141216E-1,1.455674648E0,7.977479935E0,8.142662610E0
2.857473677E0,6.033388376E-1,1.331176162E0,7.958326340E0,8.091415566E0
2.862509080E0,2.489969730E-1,1.340752959E0,7.977479935E0,8.093194925E0
2.867544483E0,3.830722719E-2,1.206677675E0,8.006210327E0,8.096724168E0
2.872579886E0,-2.011129409E-1,1.158793569E0,8.063671112E0,8.148990168E0
2.877584772E0,-7.661445439E-2,1.130063176E0,8.111555099E0,8.190252663E0
2.882620176E0,-3.830722719E-2,1.082179189E0,8.216899872E0,8.287944422E0
2.887655579E0,2.202665508E-1,9.289502501E-1,8.188169479E0,8.243639084E0
2.892690981E0,6.416460276E-1,8.236053586E-1,8.101978302E0,8.168971038E0
2.897695867E0,1.024718285E0,7.565677166E-1,8.073247910E0,8.173112876E0
2.902731271E0,1.149216771E0,9.193734527E-1,8.379706383E0,8.507962494E0
2.907766674E0,1.197100878E0,8.427590132E-1,8.552088737E0,8.676492093E0
2.912802077E0,1.359906554E0,8.906430602E-1,8.523358345E0,8.676994202E0
2.917837480E0,1.513135433E0,9.193734527E-1,8.504204750E0,8.686560010E0
2.922842366E0,1.292868972E0,1.072602391E0,8.868123055E0,9.025829191E0
2.927877769E0,8.331822157E-1,1.225831270E0,9.538499832E0,9.652970214E0
2.932913172E0,3.543418646E-1,1.522712231E0,1.027591324E1,1.039416200E1
2.937948576E0,9.576806799E-3,1.723825216E0,1.046745014E1,1.060844841E1
2.942983979E0,-2.298433632E-1,1.886630893E0,1.052491093E1,1.069513694E1
2.947988864E0,-4.596867263E-1,1.829170108E0,1.081221485E1,1.097548018E1
2.953024267E0,-6.703764796E-1,1.742978811E0,1.111867237E1,1.127440708E1
2.958059671E0,-5.554547906E-1,1.522712231E0,1.112824917E1,1.124567082E1
2.963095074E0,-2.968810201E-1,1.244984865E0,1.082179165E1,1.089721525E1
2.968099960E0,8.619125932E-2,1.101332784E0,1.063983250E1,1.069702755E1
2.973135362E0,5.841852427E-1,9.672574997E-1,1.048660374E1,1.054730854E1
2.978170766E0,1.015141487E0,8.140285611E-1,1.036210537E1,1.044348517E1
2.983206169E0,1.465251446E0,6.129156351E-1,1.024718285E1,1.036954115E1
2.988211055E0,1.781286120E0,5.171475410E-1,1.018972206E1,1.035716455E1
2.993246458E0,1.905784607E0,3.926490843E-1,1.018972206E1,1.037384326E1
2.998281861E0,1.877054095E0,3.064578176E-1,1.027591324E1,1.045043738E1
3.003317264E0,1.838746905E0,1.436520964E-1,1.046745014E1,1.062869411E1
3.008352668E0,1.819593310E0,9.576806799E-3,1.066856289E1,1.082262656E1
3.013357553E0,1.905784607E0,6.703764945E-2,1.092713642E1,1.109228648E1
3.018392957E0,1.685518026E0,1.436520964E-1,1.118570995E1,1.131290034E1
3.023428360E0,1.465251446E0,1.436520964E-1,1.140597725E1,1.150060497E1
3.028463762E0,1.197100878E0,2.968810201E-1,1.155920601E1,1.162481967E1
3.033468648E0,9.289502501E-1,4.405331016E-1,1.181777954E1,1.186241675E1
3.038504052E0,7.661445141E-1,7.086837292E-1,1.199016190E1,1.203549718E1
3.043539455E0,3.734954596E-1,1.110909581E0,1.207635307E1,1.213309204E1
3.048574858E0,2.585737705E-1,1.446097851E0,1.211466026E1,1.220340332E1
3.053579743E0,4.788403213E-2,1.733402014E0,1.207635307E1,1.220021635E1
3.058615147E0,-1.915361360E-2,1.886630893E0,1.228704357E1,1.243105718E1
3.063650550E0,-9.576806426E-2,1.944091797E0,1.229662037E1,1.244972036E1
3.068685953E0,-2.106897533E-1,2.126051188E0,1.222958183E1,1.241479584E1
3.073721357E0,-3.351882398E-1,2.250549555E0,1.209550667E1,1.230766452E1
3.078726243E0,-3.639186621E-1,2.154781580E0,1.188481712E1,1.208405555E1
3.083761645E0,-3.543418646E-1,2.078166962E0,1.156878281E1,1.175929725E1
3.088797048E0,-3.160346150E-1,2.116474390E0,1.108036518E1,1.128511561E1
3.093832452E0,-3.926490843E-1,2.020706177E0,1.049618053E1,1.069613166E1
3.098837338E0,-2.968810201E-1,2.039859772E0,9.864110947E0,1.007719460E1
3.103872741E0,-2.106897533E-1,1.982398987E0,9.375694275E0,9.585298068E0
3.108908143E0,-1.244984865E-1,1.886630893E0,8.896853447E0,9.095541614E0
3.113943547E0,-9.576806799E-3,1.924938202E0,8.513781548E0,8.728685756E0
3.118948433E0,9.576806426E-2,1.905784607E0,8.322244644E0,8.538204870E0
3.123983836E0,2.106897533E-1,1.991975784E0,8.226476669E0,8.466833888E0
3.129019239E0,3.926490843E-1,2.020706177E0,8.274360657E0,8.526574402E0
3.134054643E0,3.447650373E-1,2.173935175E0,8.274360657E0,8.562120144E0
3.139059528E0,1.628057212E-1,2.240972757E0,8.341399193E0,8.638715477E0
3.144094931E0,9.576806426E-2,2.317587137E0,8.274360657E0,8.593336136E0
3.149130334E0,-1.340752989E-1,2.365471363E0,8.274360657E0,8.606885339E0
3.154165738E0,-2.489969730E-1,2.432508945E0,8.283937454E0,8.637286554E0
3.159170624E0,-3.351882398E-1,2.461239338E0,8.159439087E0,8.529155670E0
3.164206026E0,-2.681505978E-1,2.499546528E0,8.283937454E0,8.656977379E0
3.169241429E0,-2.106897533E-1,2.509123325E0,8.350975990E0,8.722321367E0
3.174276833E0,-1.628057212E-1,2.585737944E0,8.418013573E0,8.807695438E0
3.179312236E0,-2.394201756E-1,2.576161146E0,8.532935143E0,8.916552608E0
3.184317122E0,-1.436520964E-1,2.557007313E0,8.561665535E0,8.936500381E0
3.189352524E0,-9.576806799E-3,2.595314741E0,8.561665535E0,8.946388492E0
3.194387928E0,7.661445439E-2,2.643198729E0,8.552088737E0,8.951569196E0
3.199423331E0,1.053448766E-1,2.509123325E0,8.523358345E0,8.885630809E0
3.204428217E0,8.619125932E-2,2.528276920E0,8.552088737E0,8.918398673E0
3.209463620E0,3.830722719E-2,2.528276920E0,8.599972725E0,8.963993669E0
3.214499024E0,2.873042040E-2,2.480392933E0,8.619126320E0,8.968975028E0
3.219534426E0,-1.723825186E-1,2.489969730E0,8.475474358E0,8.835345527E0
3.224539312E0,-2.585737705E-1,2.336740971E0,8.504204750E0,8.823192007E0
3.229574715E0,-4.213795066E-1,2.317587137E0,8.485051155E0,8.805956162E0
3.234610119E0,-5.650315881E-1,2.269703150E0,8.552088737E0,8.866173631E0
3.239645522E0,-5.937620401E-1,2.126051188E0,8.485051155E0,8.767481971E0
3.244650407E0,-4.405331016E-1,2.039859772E0,8.159439087E0,8.422086649E0
3.249685810E0,-2.681505978E-1,1.877054095E0,7.862558365E0,8.087957768E0
3.254721214E0,-6.703764945E-2,1.819593310E0,7.546523571E0,7.763081339E0
3.259756617E0,2.106897533E-1,1.762132406E0,7.211335659E0,7.426497342E0
3.264792020E0,4.118026793E-1,1.762132406E0,6.904877663E0,7.138068899E0
3.269796906E0,6.320692301E-1,1.781286120E0,6.617573261E0,6.882206595E0
3.274832309E0,6.512228847E-1,1.666364431E0,6.234501362E0,6.486128961E0
3.279867712E0,6.895300746E-1,1.675941229E0,5.928043365E0,6.198865128E0
3.284903115E0,6.512228847E-1,1.561019540E0,5.621585369E0,5.870527686E0
3.289908001E0,6.129156351E-1,1.589749932E0,5.363011837E0,5.627154377E0
3.294943405E0,4.979939461E-1,1.580173135E0,5.181052685E0,5.439508436E0
3.299978807E0,4.405331016E-1,1.628057122E0,5.190629482E0,5.457771874E0
3.305014210E0,4.788403511E-1,1.628057122E0,5.228936672E0,5.497420922E0
3.310049614E0,5.363011956E-1,1.752555609E0,5.238513470E0,5.549873287E0
3.315054500E0,4.979939461E-1,1.857900500E0,5.046977043E0,5.401089660E0
3.320089903E0,4.788403511E-1,2.049436569E0,4.750096321E0,5.195468544E0
3.325125306E0,4.979939461E-1,2.212242365E0,4.395754337E0,4.946177357E0
3.330160709E0,3.160346150E-1,2.346317768E0,3.763684988E0,4.446392879E0
3.335196112E0,1.149216816E-1,2.461239338E0,3.122039080E0,3.977189219E0
3.340200998E0,-7.661445439E-2,2.394201756E0,2.585737944E0,3.524785459E0
3.345236401E0,-4.405331016E-1,2.298433542E0,1.934514999E0,3.036315933E0
3.350271805E0,-6.991068721E-1,2.260126352E0,1.149216771E0,2.630137018E0
3.355320955E0,-7.948749661E-1,1.752555609E0,4.501099288E-1,1.976329001E0
3.359349275E0,1.149216816E-1,2.873041928E-1,-3.926490843E-1,4.999239897E-1
3.364354158E0,2.106897533E-1,4.022258818E-1,-2.873041928E-1,5.373262801E-1
3.369389557E0,1.522712231E0,6.991068721E-1,-2.873042040E-2,1.675776952E0
3.374424957E0,9.768342972E-1,5.937620401E-1,1.532289088E-1,1.153359312E0
3.379460357E0,6.607996821E-1,2.489969730E-1,2.968810201E-1,7.660248381E-1
3.384495756E0,5.746083856E-1,2.681505978E-1,4.501099288E-1,7.776107560E-1
3.389500639E0,5.841852427E-1,1.819593310E-1,-1.340752989E-1,6.263846914E-1
3.394536039E0,4.788403213E-2,-1.149216816E-1,-1.532289088E-1,1.974309295E-1
3.399571439E0,6.703764945E-2,-7.661445439E-2,7.661445439E-2,1.274111286E-1
3.404606838E0,9.576806799E-3,-4.788403213E-2,9.576806799E-3,4.976254606E-2
3.409642239E0,9.576806799E-3,-3.830722719E-2,2.873042040E-2,4.883232474E-2
3.414647121E0,3.830722719E-2,-2.873042040E-2,6.703764945E-2,8.238280862E-2
3.419682521E0,8.619125932E-2,-3.830722719E-2,3.830722719E-2,1.018028511E-1
3.424717920E0,6.703764945E-2,-9.576806426E-2,1.340752989E-1,1.778812929E-1
3.429753321E0,1.053448766E-1,-9.576806426E-2,7.661445439E-2,1.616751057E-1
3.434788720E0,4.788403213E-2,-6.703764945E-2,1.149216816E-1,1.413998581E-1
3.439793603E0,5.746084079E-2,-1.149216816E-1,1.053448766E-1,1.661513893E-1
3.444829002E0,2.873042040E-2,-1.244984865E-1,4.788403213E-2,1.364484911E-1
3.449864403E0,7.661445439E-2,-1.244984865E-1,1.628057212E-1,2.188043661E-1
3.454899802E0,1.915361360E-2,-2.873042040E-2,4.788403213E-2,5.903540042E-2
3.459935203E0,3.830722719E-2,-8.619125932E-2,1.340752989E-1,1.639285290E-1
3.464940084E0,9.576806799E-3,-1.340752989E-1,1.053448766E-1,1.707789332E-1
3.469975484E0,4.788403213E-2,-1.244984865E-1,8.619125932E-2,1.588133712E-1
3.475010884E0,2.873042040E-2,-5.746084079E-2,8.619125932E-2,1.074993882E-1
3.480046284E0,3.830722719E-2,-8.619125932E-2,1.053448766E-1,1.413998581E-1
3.485081684E0,1.915361360E-2,-2.873042040E-2,9.576806426E-2,1.018028492E-1
3.490086566E0,6.703764945E-2,-7.661445439E-2,1.244984865E-1,1.608219332E-1
3.495121966E0,2.873042040E-2,-4.788403213E-2,1.436520964E-1,1.541241136E-1
3.500157366E0,1.915361360E-2,-7.661445439E-2,1.149216816E-1,1.394404118E-1
3.505192766E0,5.746084079E-2,-5.746084079E-2,8.619125932E-2,1.184585566E-1
3.510228165E0,1.053448766E-1,-9.576806426E-2,1.723825186E-1,2.235728022E-1
3.515233048E0,9.576806799E-3,-1.149216816E-1,1.532289088E-1,1.917754067E-1
3.520268448E0,3.830722719E-2,-4.788403213E-2,1.436520964E-1,1.561929864E-1
3.525303848E0,5.746084079E-2,-5.746084079E-2,2.011129409E-1,2.169099155E-1
3.530339247E0,3.830722719E-2,-1.340752989E-1,2.011129409E-1,2.447244255E-1
3.535374648E0,8.619125932E-2,-9.576806426E-2,2.489969730E-1,2.803568225E-1
3.540379530E0,5.746084079E-2,-1.053448766E-1,2.489969730E-1,2.764032993E-1
3.545414930E0,6.703764945E-2,-1.053448766E-1,2.968810201E-1,3.220713113E-1
3.550450329E0,4.788403213E-2,-6.703764945E-2,2.298433632E-1,2.441616239E-1
3.555485729E0,1.436520964E-1,-7.661445439E-2,2.202665508E-1,2.739033640E-1
3.560521129E0,2.873042040E-2,-1.244984865E-1,2.298433632E-1,2.629701158E-1
3.565526011E0,3.830722719E-2,-9.576806799E-3,2.489969730E-1,2.521084121E-1
3.570561411E0,2.873042040E-2,-8.619125932E-2,2.106897533E-1,2.294439853E-1
3.575596811E0,7.661445439E-2,-8.619125932E-2,2.873041928E-1,3.095842486E-1
3.580632211E0,5.746084079E-2,-1.244984865E-1,2.394201756E-1,2.759051319E-1
3.585637093E0,0.000000000E0,-1.149216816E-1,2.777273953E-1,3.005652991E-1
3.590672493E0,6.703764945E-2,-5.746084079E-2,2.394201756E-1,2.551819256E-1
3.595707893E0,1.149216816E-1,-1.340752989E-1,2.681505978E-1,3.210730786E-1
3.600743293E0,7.661445439E-2,-1.149216816E-1,2.394201756E-1,2.764033067E-1
3.605778692E0,-9.576806799E-3,-4.788403213E-2,2.873041928E-1,2.914245957E-1
3.610783575E0,5.746084079E-2,-7.661445439E-2,2.873041928E-1,3.028452113E-1
3.615818975E0,4.788403213E-2,-7.661445439E-2,2.873041928E-1,3.011749564E-1
3.620854375E0,7.661445439E-2,-1.244984865E-1,2.298433632E-1,2.723923996E-1
3.625889774E0,8.619125932E-2,-7.661445439E-2,2.585737705E-1,2.831238291E-1
3.630894657E0,-3.830722719E-2,-5.746084079E-2,3.256114423E-1,3.328543274E-1
3.635930057E0,5.746084079E-2,-5.746084079E-2,3.256114423E-1,3.355984324E-1
3.640965457E0,6.703764945E-2,-1.053448766E-1,3.351882398E-1,3.576908520E-1
3.646000856E0,4.788403213E-2,-1.149216816E-1,2.968810201E-1,3.219288951E-1
3.651036256E0,9.576806799E-3,-3.830722719E-2,3.543418646E-1,3.565351538E-1
3.656041139E0,2.873042040E-2,-5.746084079E-2,3.447650373E-1,3.506994671E-1
3.661076538E0,2.873042040E-2,-1.053448766E-1,3.447650373E-1,3.616433478E-1
3.666111938E0,1.915361360E-2,-6.703764945E-2,3.064578176E-1,3.142885637E-1
3.671147338E0,4.788403213E-2,-5.746084079E-2,3.830722570E-1,3.903062680E-1
3.676152221E0,2.873042040E-2,-9.576806426E-2,4.405331016E-1,4.517370615E-1
3.681187620E0,2.873042040E-2,-1.149216816E-1,4.118026793E-1,4.285018981E-1
3.686223020E0,3.830722719E-2,-8.619125932E-2,5.267243981E-1,5.351027644E-1
3.691258420E0,2.873042040E-2,-1.532289088E-1,5.363011956E-1,5.585011262E-1
3.696263303E0,9.576806426E-2,-8.619125932E-2,8.714894056E-1,8.809621101E-1
3.701298702E0,6.703764945E-2,-1.436520964E-1,2.384624958E0,2.389888316E0
3.706334102E0,3.342305660E0,1.872265816E1,7.657614899E1,7.890256985E1
3.711369502E0,4.960785866E0,3.469676971E1,7.837658691E1,8.585665147E1
3.716374385E0,1.139639974E0,4.278917313E1,7.837658691E1,8.930342374E1
3.721409784E0,-6.665457726E0,4.414907837E1,7.837658691E1,9.020232161E1
3.726445184E0,-1.071644688E1,4.256890488E1,7.837658691E1,8.983230640E1
3.731480584E0,-1.184650993E1,3.618117523E1,7.799351501E1,8.678943267E1
3.736485467E0,-1.807143402E1,3.182372856E1,5.998911667E1,7.027105055E1
3.741520866E0,-2.468900871E1,2.649902534E1,4.679227829E1,5.917146950E1
3.746556265E0,-2.528277016E1,2.012087059E1,3.959051895E1,5.110261335E1
3.751591666E0,-2.292687607E1,1.467166805E1,3.469676971E1,4.409949340E1
3.756627065E0,-1.873223495E1,1.123359394E1,3.126827431E1,3.814177811E1
3.761631948E0,-1.329260826E1,8.657433510E0,2.670971489E1,3.106530957E1
3.766667347E0,-8.082824707E0,6.445190907E0,1.977610588E1,2.231517208E1
3.771702748E0,-3.974374771E0,4.280832767E0,1.166455078E1,1.304541793E1
3.776738147E0,-1.503558636E0,2.480392933E0,4.951209068E0,5.738249638E0
3.781743030E0,-3.256114423E-1,1.072602391E0,3.543418646E-1,1.175609143E0
3.786778429E0,-1.436520964E-1,2.394201756E-1,-1.043871999E0,1.080567765E0
3.791813830E0,-3.160346150E-1,-2.873042040E-2,-9.672574997E-1,1.017983490E0
3.796849229E0,-6.224924326E-1,-1.532289088E-1,-5.650315881E-1,8.545388362E-1
3.801884629E0,-7.086837292E-1,-2.489969730E-1,-1.819593310E-1,7.728785925E-1
3.806889511E0,-7.278373241E-1,-2.777273953E-1,-1.340752989E-1,7.904782491E-1
3.811924912E0,-8.044517636E-1,-2.298433632E-1,-4.788403213E-2,8.380116301E-1
3.816960311E0,-7.661445141E-1,-2.394201756E-1,-1.053448766E-1,8.095659207E-1
3.821965194E0,-8.140285611E-1,-2.011129409E-1,-6.703764945E-2,8.411795051E-1
3.827000593E0,-7.948749661E-1,-2.298433632E-1,-6.703764945E-2,8.301495226E-1
3.832035993E0,-7.469909191E-1,-2.777273953E-1,-4.788403213E-2,7.983863851E-1
3.837071393E0,-7.948749661E-1,-2.585737705E-1,-2.873042040E-2,8.363683660E-1
3.842076275E0,-7.852981687E-1,-3.064578176E-1,-1.915361360E-2,8.431942057E-1
3.847111675E0,-8.523358107E-1,-2.873041928E-1,2.873042040E-2,8.999141461E-1
3.852147075E0,-8.523358107E-1,-2.394201756E-1,-9.576806799E-3,8.853756659E-1
3.857182475E0,-8.427590132E-1,-2.489969730E-1,9.576806799E-3,8.788253308E-1
3.862187357E0,-8.236053586E-1,-3.064578176E-1,9.576806799E-3,8.788252932E-1
3.867222757E0,-8.619126081E-1,-2.873041928E-1,4.788403213E-2,9.097966387E-1
3.872258157E0,-8.044517636E-1,-2.873041928E-1,2.873042040E-2,8.546998165E-1
3.877293557E0,-7.661445141E-1,-2.489969730E-1,-9.576806799E-3,8.056479531E-1
3.882298439E0,-8.810662031E-1,-2.968810201E-1,4.788403213E-2,9.309720054E-1
3.887333839E0,-8.523358107E-1,-2.681505978E-1,0.000000000E0,8.935217273E-1
3.892369239E0,-7.948749661E-1,-3.064578176E-1,3.830722719E-2,8.527661165E-1
3.897404639E0,-9.002198577E-1,-3.543418646E-1,4.788403213E-2,9.686314210E-1
3.902409521E0,-9.097966552E-1,-2.873041928E-1,-2.873042040E-2,9.545151073E-1
3.907444921E0,-8.331822157E-1,-3.064578176E-1,0.000000000E0,8.877550329E-1
3.912480321E0,-8.619126081E-1,-3.064578176E-1,0.000000000E0,9.147730527E-1
3.917515721E0,-8.810662031E-1,-3.351882398E-1,-6.703764945E-2,9.450517747E-1
3.922520603E0,-8.810662031E-1,-3.160346150E-1,9.576806799E-3,9.360807911E-1
3.927556002E0,-8.331822157E-1,-3.256114423E-1,3.830722719E-2,8.953674439E-1
3.932591403E0,-8.810662031E-1,-3.351882398E-1,-4.788403213E-2,9.438864820E-1
3.937626802E0,-8.906430602E-1,-3.351882398E-1,0.000000000E0,9.516281925E-1
3.942631685E0,-8.619126081E-1,-2.873041928E-1,-3.830722719E-2,9.093428874E-1
3.947667084E0,-5.458779931E-1,-2.681505978E-1,1.915361360E-2,6.084853222E-1
3.952702485E0,3.466804028E0,1.628057212E-1,6.224924326E-1,3.526008040E0
3.957737884E0,9.394847870E0,4.692635238E-1,1.053448796E0,9.465364711E0
3.962742767E0,1.598369026E1,7.661445141E-1,1.273715258E0,1.605265344E1
3.967778166E0,2.217030716E1,8.523358107E-1,1.034295082E0,2.221078031E1
3.972813567E0,2.685336685E1,7.757213712E-1,3.734954596E-1,2.686716497E1
3.977848966E0,2.977429199E1,6.799532771E-1,-5.937620401E-1,2.978797330E1
3.982853849E0,3.008074951E1,1.915361285E-1,-1.580173135E0,3.012283394E1
3.987889248E0,2.826115608E1,-3.064578176E-1,-1.944091797E0,2.832960205E1
3.992924649E0,2.524446297E1,-7.278373241E-1,-2.020706177E0,2.533566481E1
3.997929530E0,2.164358330E1,-1.359906554E0,-1.857900500E0,2.176570325E1
4.002964931E0,1.796608925E1,-1.982398987E0,-1.570596337E0,1.814323680E1
4.008000330E0,1.444182491E1,-2.489969730E0,-1.158793569E0,1.470064824E1
4.013035731E0,1.120486355E1,-3.064578056E0,-8.619126081E-1,1.164832602E1
4.018040612E0,8.427590370E0,-3.466804028E0,-4.788403511E-1,9.125365620E0
4.023076012E0,6.110002518E0,-3.926490784E0,-2.681505978E-1,7.267830858E0
4.028111412E0,4.098873138E0,-4.367023945E0,-2.873042040E-2,5.989364288E0
4.033146812E0,2.470816135E0,-4.807557106E0,1.149216816E-1,5.406546467E0
4.038151694E0,1.139639974E0,-5.133168221E0,1.915361285E-1,5.261642456E0
4.043187094E0,8.619125932E-2,-5.535394192E0,3.256114423E-1,5.545632570E0
4.048222494E0,-4.213795066E-1,-5.688623428E0,2.298433632E-1,5.708837462E0
4.053257894E0,-6.895300746E-1,-5.707777023E0,3.064578176E-1,5.757437509E0
4.058262776E0,2.202665508E-1,-2.250549555E0,1.580173135E0,2.758702193E0
4.063298176E0,1.946007156E1,4.094084930E1,1.503558636E1,4.775894036E1
4.068333576E0,2.655648613E1,7.837658691E1,1.463336086E1,8.403732255E1
4.073368975E0,2.777273953E-1,7.837658691E1,2.729389906E0,7.842458848E1
4.078373858E0,-5.544970989E0,3.508942032E1,-3.552995205E0,3.570207132E1
4.083409258E0,-2.039859772E0,-1.283292055E0,-1.005564690E0,2.611326623E0
4.088444658E0,-1.005564690E0,-5.477933407E0,2.011129409E-1,5.573092604E0
4.093449540E0,-1.005564690E0,-6.033388138E0,-1.149216816E-1,6.117690721E0
4.098484940E0,-1.158793569E0,-6.023811340E0,-1.244984865E-1,6.135519984E0
4.103520340E0,-1.656787634E0,-5.947196960E0,-3.256114423E-1,6.182242292E0
4.108555739E0,-1.857900500E0,-6.004657745E0,-4.022258818E-1,6.298372375E0
4.113560622E0,-2.298433542E0,-5.822698593E0,-5.554547906E-1,6.284516344E0
4.118596021E0,-2.432508945E0,-5.736507416E0,-6.224924326E-1,6.261957675E0
4.123631422E0,-2.834734917E0,-5.564124584E0,-6.033388376E-1,6.273692867E0
4.128666821E0,-2.892195702E0,-5.458779812E0,-5.841852427E-1,6.205186976E0
4.133671704E0,-3.208230257E0,-5.286397457E0,-5.937620401E-1,6.212189052E0
4.138707103E0,-3.313575268E0,-5.142745018E0,-4.213795066E-1,6.132305281E0
4.143742504E0,-3.514688015E0,-4.922478676E0,-3.734954596E-1,6.059977476E0
4.148747385E0,-4.103661728E1,-3.897760391E0,1.188481712E1,4.290041226E1
4.153782786E0,-7.837658691E1,-3.428496838E0,2.416228294E1,8.208812267E1
4.158818185E0,-7.837658691E1,-8.829815865E0,1.659660530E1,8.059964226E1
4.163853586E0,-5.089115143E1,-1.225831223E1,1.228704357E1,5.376938676E1
4.168858467E0,-2.724601555E1,-1.047702694E1,9.940725327E0,3.083717686E1
4.173893868E0,-1.440351772E1,-7.948749542E0,7.326257229E0,1.800883081E1
4.178929267E0,-6.004657745E0,-5.544970989E0,3.390189648E0,8.848502911E0
4.183934150E0,-2.049436569E0,-4.462791920E0,9.959878922E-1,5.010857596E0
4.188969549E0,-9.002198577E-1,-4.271255970E0,-7.661445439E-2,4.365763751E0
4.194004950E0,-7.374141216E-1,-4.146757126E0,-8.619125932E-2,4.212695477E0
4.199040349E0,-6.703764945E-2,-3.208230257E0,-3.830722719E-2,3.209159216E0
4.204045231E0,2.106897593E0,3.303998232E0,8.714894056E-1,4.014338746E0
4.209080631E0,5.018246651E0,1.964203072E1,2.240972757E0,2.039642442E1
4.214116031E0,8.236053586E-1,3.491703796E1,-1.283292055E0,3.495031766E1
4.219120914E0,-1.710417747E1,4.259763718E1,-4.089296341E0,4.608507269E1
4.224156313E0,-1.340752983E1,2.564668846E1,9.385270476E-1,2.895505687E1
4.229191713E0,-3.734954596E0,8.350975990E0,-4.692635238E-1,9.160179806E0
4.234227113E0,-8.619126081E-1,8.331822157E-1,-2.968810201E-1,1.234999712E0
4.239231996E0,-5.267243981E-1,-1.063025594E0,-1.532289088E-1,1.196219505E0
4.244267395E0,-4.118026793E-1,-1.618480325E0,9.576806799E-3,1.670075365E0
4.249302795E0,-3.160346150E-1,-1.829170108E0,-5.746084079E-2,1.857159904E0
4.254338195E0,-3.447650373E-1,-1.848323703E0,-9.576806426E-2,1.882640423E0
4.259343078E0,-2.968810201E-1,-1.896207690E0,-5.746084079E-2,1.920167621E0
4.264378477E0,-3.064578176E-1,-1.848323703E0,-7.661445439E-2,1.875123110E0
4.269413877E0,-3.160346150E-1,-1.819593310E0,1.340752989E-1,1.851694867E0
4.274418759E0,-1.340752989E-1,-1.608903527E0,3.734954596E-1,1.657119671E0
4.279454160E0,3.830722719E-2,-1.082179189E0,8.236053586E-1,1.360479705E0
4.284489559E0,-1.340752989E-1,1.819593310E-1,9.002198577E-1,9.281601026E-1
4.289524958E0,-8.714894056E-1,2.183511972E0,1.053448796E0,2.576232265E0
4.294529841E0,-1.867477298E0,5.075707436E0,1.465251446E0,5.603323945E0
4.299565241E0,-2.614468336E0,7.728483200E0,1.944091797E0,8.387156262E0
4.304600641E0,-2.451662540E0,7.584830761E0,1.982398987E0,8.214025361E0
4.309605523E0,-1.656787634E0,4.644751072E0,1.465251446E0,5.144474665E0
4.314640923E0,-7.565677166E-1,9.002198577E-1,7.852981687E-1,1.414031017E0
4.319676323E0,-1.915361285E-1,-1.513135433E0,2.777273953E-1,1.550289468E0
4.324681205E0,1.628057212E-1,-2.738966703E0,7.661445439E-2,2.744870503E0
4.329716605E0,2.873041928E-1,-3.361459255E0,2.873042040E-2,3.373837201E0
4.334752005E0,4.405331016E-1,-3.677493811E0,-2.873042040E-2,3.703897350E0
4.339787405E0,4.979939461E-1,-3.897760391E0,-7.661445439E-2,3.930191320E0
4.344792287E0,5.937620401E-1,-4.022258759E0,-2.873042040E-2,4.065949375E0
4.349827687E0,8.427590132E-1,-4.108449936E0,5.746084079E-2,4.194389750E0
4.354863087E0,1.292868972E0,-4.510675907E0,2.873041928E-1,4.701090407E0
4.359867969E0,1.695094824E0,-4.932055473E0,6.512228847E-1,5.255721539E0
4.364903369E0,2.039859772E0,-5.420472622E0,8.140285611E-1,5.848520653E0
4.369938769E0,2.432508945E0,-6.387730122E0,-8.810662031E-1,6.891768534E0
4.374974169E0,3.792415380E0,-7.671022415E0,-1.005564690E1,1.320390222E1
4.379979051E0,7.240066051E0,-9.069235802E0,-1.577300072E1,1.958206184E1
4.385014450E0,7.613561630E0,-1.018972206E1,-2.087743950E1,2.444717236E1
4.390049851E0,9.758766174E0,-1.093671322E1,-1.594538307E1,2.165872698E1
4.395085250E0,6.378153324E0,-1.173158836E1,-3.590345001E1,3.830624920E1
4.400090133E0,-3.915956116E1,-6.272808552E0,-7.821378326E1,8.769387236E1
4.405125532E0,-3.149811745E1,-4.386177540E0,-7.821378326E1,8.443201910E1
4.410160933E0,-7.690176010E0,-1.040998936E1,-7.821378326E1,7.927737747E1
4.415165814E0,8.207323074E0,-3.102885437E1,-6.955635071E1,7.660441162E1
4.420201215E0,-3.964797974E0,-6.033388138E0,6.838797760E1,6.876799310E1
4.425236614E0,-2.106897533E-1,4.309563041E-1,1.802355003E1,1.802993259E1
4.430272015E0,1.905784607E0,-1.359906554E0,1.028549004E1,1.054858598E1
4.435276896E0,3.495534420E0,-1.752555609E0,3.734954596E0,5.407411384E0
4.440312297E0,2.595314741E0,-1.101332784E0,1.158793569E0,3.048178971E0
4.445347696E0,2.154781580E0,-8.906430602E-1,8.331822157E-1,2.475988959E0
4.450383097E0,2.193088770E0,-9.481038451E-1,3.543418646E-1,2.415387632E0
4.455387978E0,2.451662540E0,-8.619126081E-1,-1.675941229E0,3.092300367E0
4.460423379E0,2.059013367E0,-6.703764945E-2,-1.176031876E1,1.193939393E1
4.465458778E0,2.968810201E-1,1.551442742E0,-2.622129631E1,2.626883121E1
4.470494179E0,-2.978386879E0,2.355894566E0,-2.671929169E1,2.698780421E1
4.475499060E0,-2.135627985E0,4.405331016E-1,-1.465251446E1,1.481388390E1
4.480534460E0,6.799532771E-1,-3.064578176E-1,-7.364564419E0,7.402233577E0
4.485569860E0,1.685518026E0,-6.224924326E-1,-4.740519524E0,5.069614699E0
4.490605260E0,2.173935175E0,-6.799532771E-1,-4.826710701E0,5.337177793E0
4.495610142E0,2.355894566E0,-8.427590132E-1,-6.081272125E0,6.575891774E0
4.500645542E0,2.068590164E0,-9.385270476E-1,-9.030928612E0,9.312226902E0
4.505680942E0,1.561019540E0,-9.097966552E-1,-1.469082165E1,1.480151184E1
4.510716342E0,4.501099288E-1,-7.852981687E-1,-2.324291039E1,2.326052827E1
4.515721224E0,-9.576806799E-3,1.714248419E0,-4.989516258E0,5.275794902E0
4.520756624E0,-2.470816135E0,3.552995205E0,-1.342668343E1,1.410689672E1
4.525792024E0,-2.250549555E0,1.455674648E0,-1.677856636E1,1.699129928E1
4.530796906E0,-2.528276920E0,1.493981838E0,-1.480574322E1,1.509417762E1
4.535832306E0,-1.934514999E0,4.118026793E-1,-1.027591324E1,1.046452687E1
4.540867706E0,-5.075707436E-1,-4.309563041E-1,-6.291962147E0,6.327095625E0
4.545903106E0,3.830722719E-2,-6.799532771E-1,-5.104437828E0,5.149668867E0
4.550907988E0,-2.681505978E-1,-2.777273953E-1,-6.627150536E0,6.638385457E0
4.555943388E0,-2.011129409E-1,5.746084079E-2,-9.203310966E0,9.205687422E0
4.560978788E0,-2.011129409E-1,2.106897533E-1,-9.969455719E0,9.973709637E0
4.566014187E0,-1.436520964E-1,1.024718285E0,-1.105163479E1,1.109996914E1
4.571019070E0,1.082179189E0,7.852981687E-1,-1.303403378E1,1.310243647E1
4.576054469E0,2.777273953E-1,-4.501099288E-1,-1.143470764E1,1.144693279E1
4.581089870E0,-1.024718285E0,-7.661445439E-2,-9.576807022E0,9.631778137E0
4.586125269E0,-8.523358107E-1,1.819593310E-1,-8.350975990E0,8.396331671E0
4.591130152E0,6.320692301E-1,2.777273953E-1,-8.312667847E0,8.341288315E0
4.596165551E0,8.331822157E-1,2.298433632E-1,-9.375694275E0,9.415448142E0
4.601200952E0,5.746084079E-2,1.053448766E-1,-1.067813969E1,1.067881391E1
4.606236351E0,-2.298433632E-1,6.703764945E-2,-1.116655636E1,1.116912275E1
4.611241234E0,-7.661445439E-2,1.149216816E-1,-1.004607010E1,1.004701952E1
4.616276633E0,2.585737705E-1,1.053448766E-1,-8.973467827E0,8.977810578E0
4.621312034E0,3.447650373E-1,8.619125932E-2,-9.069235802E0,9.076195783E0
4.626347433E0,1.053448766E-1,1.053448766E-1,-1.007480049E1,1.007590195E1
4.631352316E0,-4.788403213E-2,1.053448766E-1,-1.079306126E1,1.079368156E1
4.636387715E0,1.244984865E-1,1.340752989E-1,-1.029506683E1,1.029669254E1
4.641423116E0,1.436520964E-1,2.298433632E-1,-9.337387085E0,9.341320114E0
4.646427998E0,1.436520964E-1,2.106897533E-1,-9.069235802E0,9.072820076E0
4.651463398E0,2.298433632E-1,2.873042040E-2,-9.643844604E0,9.646625947E0
4.656498797E0,2.873042040E-2,6.703764945E-2,-1.035252857E1,1.035278549E1
4.661534197E0,1.723825186E-1,6.703764945E-2,-1.032379818E1,1.032545489E1
4.666539080E0,1.053448766E-1,6.703764945E-2,-9.864110947E0,9.864901234E0
4.671574479E0,1.819593310E-1,1.053448766E-1,-9.653421402E0,9.655710823E0
4.676609879E0,1.053448766E-1,4.788403213E-2,-9.749189377E0,9.749876098E0
4.681614761E0,8.619125932E-2,5.746084079E-2,-9.979032516E0,9.979570163E0
4.686650161E0,1.053448766E-1,7.661445439E-2,-9.959878922E0,9.960730668E0
4.691685561E0,1.723825186E-1,1.436520964E-1,-9.749189377E0,9.751771386E0
4.696720961E0,1.244984865E-1,6.703764945E-2,-9.701305389E0,9.702335810E0
4.701725843E0,1.340752989E-1,3.830722719E-2,-9.787496567E0,9.788489806E0
4.706761243E0,1.244984865E-1,6.703764945E-2,-9.979032516E0,9.980034263E0
4.711796643E0,8.619125932E-2,8.619125932E-2,-1.002691650E1,1.002765738E1
4.716801526E0,1.053448766E-1,1.532289088E-1,-9.950302124E0,9.952039439E0
4.721836925E0,1.628057212E-1,9.576806799E-3,-9.844957352E0,9.846308073E0
4.726872325E0,1.149216816E-1,9.576806426E-2,-9.787496567E0,9.788639720E0
4.731907725E0,9.576806426E-2,1.053448766E-1,-9.768342972E0,9.769380404E0
4.736912608E0,8.619125932E-2,1.053448766E-1,-9.844957352E0,9.845898219E0
4.741948007E0,1.053448766E-1,9.576806426E-2,-9.911994934E0,9.913017333E0
4.746983407E0,1.532289088E-1,1.436520964E-1,-9.854534149E0,9.856772206E0
4.751988289E0,1.723825186E-1,2.873042040E-2,-9.835380554E0,9.836933049E0
4.757023689E0,1.628057212E-1,7.661445439E-2,-9.864110947E0,9.865751884E0
4.762059089E0,1.628057212E-1,6.703764945E-2,-9.873687744E0,9.875257436E0
4.767094488E0,1.436520964E-1,6.703764945E-2,-9.931148529E0,9.932413658E0
4.772099371E0,7.661445439E-2,1.053448766E-1,-9.873687744E0,9.874546926E0
4.777134771E0,1.436520964E-1,7.661445439E-2,-9.787496567E0,9.788850532E0
4.782170171E0,1.149216816E-1,9.576806426E-2,-9.844957352E0,9.846093833E0
4.787205570E0,7.661445439E-2,9.576806426E-2,-9.892841339E0,9.893601521E0
4.792210453E0,1.149216816E-1,4.788403213E-2,-9.959878922E0,9.960657007E0
4.797245853E0,6.703764945E-2,1.244984865E-1,-9.892841339E0,9.893851812E0
4.802281253E0,1.149216816E-1,1.149216816E-1,-9.844957352E0,9.846298759E0
4.807316652E0,1.340752989E-1,1.532289088E-1,-9.816226959E0,9.818338301E0
4.812321535E0,1.628057212E-1,6.703764945E-2,-9.844957352E0,9.846531623E0
4.817356935E0,1.244984865E-1,1.149216816E-1,-9.835380554E0,9.836839813E0
4.822392335E0,1.053448766E-1,1.436520964E-1,-9.854534149E0,9.856144112E0
4.827427734E0,8.619125932E-2,1.436520964E-1,-9.844957352E0,9.846382590E0
4.832432617E0,1.340752989E-1,6.703764945E-2,-9.892841339E0,9.893976955E0
4.837468017E0,1.723825186E-1,9.576806426E-2,-9.902418137E0,9.904381465E0
4.842503416E0,1.532289088E-1,1.436520964E-1,-9.835380554E0,9.837622968E0
4.847538816E0,9.576806426E-2,1.053448766E-1,-9.873687744E0,9.874714109E0
4.852543698E0,1.340752989E-1,1.244984865E-1,-9.825803757E0,9.827507086E0
4.857579099E0,1.244984865E-1,1.149216816E-1,-9.864110947E0,9.865565956E0
4.862614498E0,1.628057212E-1,6.703764945E-2,-9.873687744E0,9.875257436E0
4.867619381E0,7.661445439E-2,8.619125932E-2,-9.835380554E0,9.836056596E0
4.872654780E0,1.340752989E-1,1.149216816E-1,-9.854534149E0,9.856116196E0
4.877690181E0,1.053448766E-1,4.788403213E-2,-9.892841339E0,9.893518089E0
4.882725580E0,1.436520964E-1,1.340752989E-1,-9.844957352E0,9.846918166E0
4.887730463E0,1.723825186E-1,9.576806426E-2,-9.864110947E0,9.866081898E0
4.892765862E0,1.053448766E-1,1.244984865E-1,-9.844957352E0,9.846308073E0
4.897801263E0,1.053448766E-1,4.788403213E-2,-9.864110947E0,9.864789668E0
4.902806144E0,1.532289088E-1,9.576806426E-2,-9.768342972E0,9.770014075E0
4.907841545E0,1.244984865E-1,1.053448766E-1,-9.864110947E0,9.865459046E0
4.912876944E0,1.532289088E-1,1.340752989E-1,-9.864110947E0,9.866212042E0
4.917912345E0,1.436520964E-1,9.576806426E-2,-9.873687744E0,9.875197067E0
4.922917226E0,9.576806426E-2,5.746084079E-2,-9.854534149E0,9.855166998E0
4.927952627E0,1.532289088E-1,1.340752989E-1,-9.864110947E0,9.866212042E0
4.932988026E0,1.149216816E-1,7.661445439E-2,-9.902418137E0,9.903381328E0
4.938023426E0,1.053448766E-1,6.703764945E-2,-9.931148529E0,9.931933482E0
4.943028308E0,1.532289088E-1,1.149216816E-1,-9.854534149E0,9.856395355E0
4.948063708E0,1.340752989E-1,8.619125932E-2,-9.892841339E0,9.894125271E0
4.953099108E0,1.244984865E-1,1.244984865E-1,-9.825803757E0,9.827381096E0
4.958103990E0,1.532289088E-1,8.619125932E-2,-9.883264542E0,9.884828073E0
4.963139390E0,1.532289088E-1,1.149216816E-1,-9.883264542E0,9.885120338E0
4.968174790E0,1.723825186E-1,8.619125932E-2,-9.873687744E0,9.875568558E0
4.973210190E0,1.244984865E-1,6.703764945E-2,-9.873687744E0,9.874700177E0
4.978215072E0,1.819593310E-1,1.340752989E-1,-9.864110947E0,9.866700064E0
4.983250472E0,1.244984865E-1,6.703764945E-2,-9.816226959E0,9.817245318E0
4.988285872E0,1.532289088E-1,8.619125932E-2,-9.902418137E0,9.903978644E0
4.993290754E0,7.661445439E-2,1.244984865E-1,-9.864110947E0,9.865194089E0
4.998326154E0,9.576806426E-2,1.053448766E-1,-9.864110947E0,9.865138308E0
5.003361554E0,1.244984865E-1,7.661445439E-2,-9.873687744E0,9.874769836E0
5.008396954E0,1.532289088E-1,7.661445439E-2,-9.883264542E0,9.884749206E0
5.013432354E0,1.532289088E-1,9.576806426E-2,-9.873687744E0,9.875341021E0
5.018437236E0,1.340752989E-1,8.619125932E-2,-9.844957352E0,9.846247528E0
5.023472636E0,1.244984865E-1,5.746084079E-2,-9.864110947E0,9.865063932E0
5.028508036E0,1.340752989E-1,1.149216816E-1,-9.835380554E0,9.836965682E0
5.033512917E0,8.619125932E-2,9.576806426E-2,-9.998186111E0,9.999016250E0
5.038548318E0,-2.873042040E-2,4.788403213E-2,-1.008437729E1,1.008453190E1
5.043583717E0,7.661445439E-2,4.788403213E-2,-9.873687744E0,9.874101089E0
5.048619118E0,1.532289088E-1,1.244984865E-1,-9.528923035E0,9.530968113E0
5.053623999E0,5.267243981E-1,2.106897533E-1,-9.346963882E0,9.364163742E0
5.058659400E0,2.106897533E-1,2.298433632E-1,-9.844957352E0,9.849893573E0
5.063694799E0,-2.873042040E-2,5.746084079E-2,-1.012268448E1,1.012288833E1
5.068730200E0,-6.703764945E-2,7.661445439E-2,-9.969455719E0,9.969975484E0
5.073735081E0,2.394201756E-1,5.746084079E-2,-9.758766174E0,9.761871799E0
5.078770482E0,4.788403213E-2,1.053448766E-1,-9.806650162E0,9.807332860E0
5.083805881E0,1.723825186E-1,1.819593310E-1,-9.911994934E0,9.915163564E0
5.088810764E0,1.053448766E-1,2.298433632E-1,-9.797073364E0,9.800335301E0
5.093846163E0,2.011129409E-1,1.915361285E-1,-9.538499832E0,9.542542195E0
5.098881564E0,2.394201756E-1,9.576806426E-2,-9.500192642E0,9.503691587E0
5.103916963E0,4.788403213E-2,0.000000000E0,-9.643844604E0,9.643963482E0
5.108921846E0,1.628057212E-1,1.915361360E-2,-9.768342972E0,9.769718367E0
5.113957245E0,2.011129409E-1,9.576806426E-2,-9.701305389E0,9.703862334E0
5.118992645E0,1.244984865E-1,1.628057212E-1,-9.777919769E0,9.780067515E0
5.123997528E0,1.915361360E-2,6.703764945E-2,-9.950302124E0,9.950546380E0
5.129032927E0,1.053448766E-1,3.830722719E-2,-9.969455719E0,9.970085873E0
5.134068327E0,-3.830722719E-2,8.619125932E-2,-9.921571732E0,9.922020056E0
5.139103727E0,0.000000000E0,9.576806426E-2,-9.873687744E0,9.874152176E0
5.144108610E0,3.830722719E-2,1.244984865E-1,-1.011310768E1,1.011394652E1
5.149144009E0,2.873042040E-2,1.053448766E-1,-1.024718285E1,1.024776460E1
5.154179409E0,7.661445439E-2,4.788403213E-2,-1.023760605E1,1.023800470E1
5.159184291E0,3.830722719E-2,8.619125932E-2,-9.969455719E0,9.969901891E0
5.164219692E0,3.830722719E-2,1.723825186E-1,-9.911994934E0,9.913567811E0
5.169255091E0,3.830722719E-2,2.011129409E-1,-1.011310768E1,1.011517972E1
5.174290491E0,9.576806799E-3,5.746084079E-2,-9.787496567E0,9.787669922E0
5.179295373E0,1.532289088E-1,2.011129409E-1,-9.787496567E0,9.790761694E0
5.184330774E0,1.915361285E-1,1.053448766E-1,-1.034295177E1,1.034526148E1
5.189366173E0,6.703764945E-2,0.000000000E0,-9.988609314E0,9.988834270E0
5.194371056E0,9.576806426E-2,2.202665508E-1,-9.548076630E0,9.551097120E0
5.199406455E0,2.106897533E-1,3.351882398E-1,-9.605537415E0,9.613692857E0
5.204441856E0,1.149216816E-1,3.830722570E-1,-1.003649330E1,1.004445863E1
5.209477255E0,2.106897533E-1,5.554547906E-1,-1.020887566E1,1.022614602E1
5.214482137E0,2.681505978E-1,6.799532771E-1,-1.016099167E1,1.018724658E1
5.219517537E0,1.244984865E-1,6.320692301E-1,-1.004607010E1,1.006670432E1
5.224552937E0,-1.244984865E-1,5.171475410E-1,-9.787496567E0,9.801940139E0
5.229557819E0,-2.777273953E-1,3.543418646E-1,-9.500192642E0,9.510854373E0
5.234593219E0,-4.788403511E-1,1.340752989E-1,-9.394847870E0,9.407998234E0
5.239628619E0,-3.830722570E-1,-9.576806426E-2,-9.557653427E0,9.565806548E0
5.244664019E0,-7.661445439E-2,-3.256114423E-1,-9.931148529E0,9.936780348E0
5.249668901E0,1.915361285E-1,-5.458779931E-1,-1.043871975E1,1.045473763E1
5.254704301E0,6.224924326E-1,-5.171475410E-1,-1.056321812E1,1.059417365E1
5.259739701E0,8.810662031E-1,-3.734954596E-1,-1.044829655E1,1.049202922E1
5.264744583E0,6.991068721E-1,-3.064578176E-1,-1.060152531E1,1.062897011E1
5.269779983E0,5.363011956E-1,-1.532289088E-1,-1.062067890E1,1.063531468E1
5.274815383E0,6.607996821E-1,-1.532289088E-1,-1.040041256E1,1.042251010E1
5.279850783E0,8.427590132E-1,-4.405331016E-1,-9.998186111E0,1.004330810E1
5.284855665E0,1.149216771E0,-7.757213712E-1,-9.643844604E0,9.743006804E0
5.289891065E0,1.254561663E0,-1.053448796E0,-9.634267807E0,9.772553172E0
5.294926465E0,1.302445769E0,-1.532289028E0,-9.931148529E0,1.013271858E1
5.299931347E0,1.446097851E0,-1.982398987E0,-1.022802925E1,1.051825495E1
5.304966747E0,1.752555609E0,-2.375048161E0,-1.030464458E1,1.071904870E1
5.310002146E0,2.106897593E0,-2.681505919E0,-1.024718285E1,1.079973369E1
5.315007029E0,2.489969730E0,-2.920926094E0,-1.041956615E1,1.110401357E1
5.320042428E0,2.748543501E0,-3.351882458E0,-1.055364132E1,1.140916090E1
5.325077829E0,3.007117271E0,-3.907337189E0,-1.066856289E1,1.175279849E1
5.330113228E0,2.920926094E0,-4.299986362E0,-1.075475407E1,1.194514240E1
5.335118111E0,2.777273893E0,-4.654327869E0,-1.056321812E1,1.187255639E1
5.340153510E0,2.403778553E0,-4.845864296E0,-1.001733971E1,1.138453543E1
5.345188911E0,1.972822189E0,-4.807557106E0,-9.911994934E0,1.119161634E1
5.350224310E0,1.675941229E0,-4.759673119E0,-9.873687744E0,1.108841634E1
5.355229193E0,1.235408068E0,-4.663905144E0,-9.586383820E0,1.073205474E1
5.360264592E0,9.864110947E-1,-4.501099110E0,-9.366117477E0,1.043824969E1
5.365299993E0,7.374141216E-1,-4.510675907E0,-9.174580574E0,1.025001978E1
5.370304875E0,3.830722570E-1,-4.453215122E0,-9.117119789E0,1.015380434E1
5.375340275E0,-1.053448766E-1,-4.644751072E0,-9.136273384E0,1.024969763E1
5.380375674E0,-3.734954596E-1,-4.845864296E0,-9.289502144E0,1.048411893E1
5.385411075E0,-7.757213712E-1,-5.114014626E0,-9.662998199E0,1.096031128E1
5.390415957E0,-1.053448796E0,-5.487510204E0,-9.404424667E0,1.093918306E1
5.395451356E0,-1.359906554E0,-5.918466568E0,-9.356540680E0,1.115448098E1
5.400486756E0,-1.714248419E0,-6.406883717E0,-9.433155060E0,1.153131480E1
5.405491638E0,-1.991975784E0,-6.904877663E0,-9.260771751E0,1.172208158E1
5.410527039E0,-2.365471363E0,-7.268796444E0,-9.136273384E0,1.191227719E1
5.415562438E0,-2.566584110E0,-7.565677166E0,-9.318233490E0,1.227421282E1
5.420597838E0,-2.652775526E0,-7.958326340E0,-9.471462250E0,1.265230308E1
5.425602720E0,-2.547430515E0,-8.494627953E0,-9.624691010E0,1.308750485E1
5.430638121E0,-2.614468336E0,-8.935160637E0,-9.730035782E0,1.346648197E1
5.435673520E0,-2.710236311E0,-9.394847870E0,-9.672574997E0,1.375380872E1
5.440678403E0,-2.844311714E0,-9.701305389E0,-9.739612579E0,1.403800159E1
5.445713802E0,-2.968810081E0,-9.911994934E0,-9.864110947E0,1.429552943E1
5.450749203E0,-3.122039080E0,-1.005564690E1,-9.988609314E0,1.451328628E1
5.455784602E0,-3.122039080E0,-1.020887566E1,-1.017056847E1,1.474478664E1
5.460789485E0,-3.064578056E0,-1.041956615E1,-1.025675964E1,1.493854464E1
5.465824884E0,-2.911349297E0,-1.080263805E1,-1.029506683E1,1.520399108E1
5.470860285E0,-2.729389906E0,-1.110909557E1,-1.040998936E1,1.546704407E1
5.475865166E0,-2.729389906E0,-1.138682365E1,-1.046745014E1,1.570594902E1
5.480900567E0,-2.585737944E0,-1.164539719E1,-1.055364132E1,1.592735576E1
5.485935966E0,-2.422932148E0,-1.192312431E1,-1.063025570E1,1.615654139E1
5.490971366E0,-2.183511972E0,-1.220085144E1,-1.044829655E1,1.621096546E1
5.495976248E0,-2.097320795E0,-1.233492756E1,-1.013226128E1,1.610005935E1
5.501011648E0,-1.972822189E0,-1.258392429E1,-9.883264542E0,1.612222367E1
5.506047048E0,-1.829170108E0,-1.269884586E1,-9.586383820E0,1.601578297E1
5.511051930E0,-1.723825216E0,-1.277546024E1,-9.184157372E0,1.582822493E1
5.516087330E0,-1.618480325E0,-1.287122822E1,-8.676587105E0,1.560676642E1
5.521122730E0,-1.561019540E0,-1.287122822E1,-8.197746277E0,1.533976342E1
5.526158130E0,-1.618480325E0,-1.287122822E1,-7.680599213E0,1.507579513E1
5.531163012E0,-1.944091797E0,-1.296699619E1,-7.220912457E0,1.496876948E1
5.536198412E0,-2.202665567E0,-1.319683933E1,-6.818686485E0,1.501675029E1
5.541233812E0,-2.557007313E0,-1.331176186E1,-6.435614109E0,1.500527971E1
5.546238695E0,-2.633621931E0,-1.341710663E1,-5.889736176E0,1.488770321E1
5.551274094E0,-2.834734917E0,-1.343626022E1,-5.324704647E0,1.472824804E1
5.556309494E0,-2.949656487E0,-1.350329781E1,-4.683058739E0,1.459351103E1
5.561344894E0,-3.083731890E0,-1.362779617E1,-4.290409565E0,1.461621856E1
5.566349777E0,-3.131615877E0,-1.366610336E1,-4.022258759E0,1.458588237E1
5.571385176E0,-3.198653460E0,-1.375229454E1,-3.801992416E0,1.462231635E1
5.576420576E0,-3.150769472E0,-1.364694977E1,-3.591302633E0,1.445904702E1
5.581455976E0,-3.122039080E0,-1.367568016E1,-3.246537447E0,1.439831106E1
5.586460858E0,-3.112462282E0,-1.342668343E1,-2.834734917E0,1.407121073E1
5.591496258E0,-3.275267839E0,-1.333091545E1,-2.806004286E0,1.401122215E1
5.596531657E0,-3.371036053E0,-1.326387787E1,-3.102885485E0,1.403289844E1
5.601536540E0,-3.696647406E0,-1.312022495E1,-3.275267839E0,1.401901866E1
5.606571939E0,-3.773261786E0,-1.297657299E1,-3.246537447E0,1.389852354E1
5.611607340E0,-3.754108191E0,-1.293826580E1,-2.901772499E0,1.378086840E1
5.616642739E0,-3.591302633E0,-1.278503704E1,-2.413355350E0,1.349736681E1
5.621647622E0,-3.438073635E0,-1.267969227E1,-2.011129379E0,1.329058267E1
5.626683021E0,-3.122039080E0,-1.256477070E1,-1.953668594E0,1.309341100E1
5.631718422E0,-3.016694069E0,-1.241154194E1,-1.991975784E0,1.292728834E1
5.636753821E0,-2.710236311E0,-1.235408115E1,-1.896207690E0,1.278922615E1
5.641758704E0,-2.461239338E0,-1.226788998E1,-1.829170108E0,1.264534250E1
5.646794103E0,-2.068590164E0,-1.235408115E1,-1.570596337E0,1.262414984E1
5.651829504E0,-1.647210717E0,-1.233492756E1,-1.398213744E0,1.252272904E1
5.656834386E0,-1.206677675E0,-1.234450436E1,-1.082179189E0,1.245046066E1
5.661869786E0,-7.948749661E-1,-1.235408115E1,-9.576807022E-1,1.241661386E1
5.666905185E0,-3.447650373E-1,-1.232535076E1,-7.948749661E-1,1.235576629E1
5.671940585E0,7.661445439E-2,-1.240196514E1,-6.224924326E-1,1.241781406E1
5.676945468E0,3.639186621E-1,-1.230619717E1,-4.788403511E-1,1.232088526E1
5.681980867E0,5.937620401E-1,-1.222958183E1,-3.926490843E-1,1.225028157E1
5.687016267E0,8.044517636E-1,-1.207635307E1,-2.777273953E-1,1.210630326E1
5.692051667E0,8.427590132E-1,-1.191354752E1,-1.053448766E-1,1.194378310E1
5.697056550E0,6.607996821E-1,-1.162624359E1,-6.703764945E-2,1.164520031E1
5.702091949E0,6.799532771E-1,-1.139640045E1,3.830722719E-2,1.141673102E1
5.707127349E0,5.363011956E-1,-1.119528675E1,9.576806799E-3,1.120812902E1
5.712162749E0,4.884171486E-1,-1.088882923E1,-5.746084079E-2,1.089992913E1
5.717167632E0,2.777273953E-1,-1.052491093E1,-1.340752989E-1,1.052942822E1
5.722203031E0,1.915361285E-1,-1.022802925E1,-1.915361285E-1,1.023161544E1
5.727238431E0,3.830722719E-2,-1.003649330E1,-1.149216816E-1,1.003722433E1
5.732273831E0,-1.628057212E-1,-9.691728592E0,-1.340752989E-1,9.694023158E0
5.737278714E0,-2.298433632E-1,-9.423578262E0,-6.703764945E-2,9.426619186E0
5.742314113E0,-4.692635238E-1,-9.184157372E0,-1.149216816E-1,9.196856086E0
5.747349513E0,-6.224924326E-1,-8.992621422E0,-8.619125932E-2,9.014553000E0
5.752384913E0,-8.427590132E-1,-8.848969460E0,-9.576806799E-3,8.889015410E0
5.757389796E0,-1.024718285E0,-8.667010307E0,5.746084079E-2,8.727566498E0
5.762425195E0,-1.177947283E0,-8.465897560E0,1.723825186E-1,8.549192771E0
5.767460594E0,-1.177947283E0,-8.245630264E0,2.394201756E-1,8.332784665E0
5.772465477E0,-1.340752959E0,-8.121131897E0,3.351882398E-1,8.237885223E0
5.777500877E0,-1.426944256E0,-7.987056732E0,3.351882398E-1,8.120443110E0
5.782536277E0,-1.493981838E0,-7.920019150E0,2.968810201E-1,8.065161090E0
5.787571676E0,-1.503558636E0,-7.948749542E0,3.830722570E-1,8.098768561E0
5.792576559E0,-1.407790542E0,-7.958326340E0,3.926490843E-1,8.091415552E0
5.797611959E0,-1.340752959E0,-7.929595947E0,5.650315881E-1,8.061970670E0
5.802647359E0,-1.369483352E0,-7.939172745E0,5.554547906E-1,8.075548189E0
5.807682758E0,-1.264138460E0,-8.006210327E0,6.895300746E-1,8.134672801E0
5.812687641E0,-1.168370485E0,-7.977479935E0,9.768342972E-1,8.121544246E0
5.817723041E0,-1.225831270E0,-7.948749542E0,1.139639974E0,8.123057359E0
5.822758441E0,-1.120486379E0,-7.891288757E0,1.273715258E0,8.071572247E0
5.827793840E0,-9.385270476E-1,-7.872135162E0,1.426944256E0,8.055278701E0
5.832798723E0,-9.193734527E-1,-7.881711960E0,1.675941229E0,8.110204064E0
5.837834123E0,-8.619126081E-1,-7.929595947E0,2.049436569E0,8.235385570E0
5.842869523E0,-8.714894056E-1,-8.015787125E0,2.384624958E0,8.408256252E0
5.847904922E0,-1.015141487E0,-8.063671112E0,2.796427488E0,8.594958449E0
5.852909805E0,-9.576807022E-1,-7.948749542E0,3.093308687E0,8.583025705E0
5.857945205E0,-1.072602391E0,-7.766790390E0,3.332728863E0,8.519424307E0
5.862980604E0,-1.369483352E0,-7.651868820E0,3.581725836E0,8.558933406E0
5.868016004E0,-1.570596337E0,-7.412448406E0,3.840299606E0,8.494649216E0
5.873020886E0,-1.675941229E0,-7.182605267E0,4.012681961E0,8.396440552E0
5.878056286E0,-1.848323703E0,-7.058106422E0,4.204218388E0,8.420725564E0
5.883091686E0,-1.896207690E0,-6.904877663E0,4.414907932E0,8.412154967E0
5.888127086E0,-1.915361404E0,-6.847416878E0,4.548983097E0,8.440910758E0
5.893131968E0,-1.953668594E0,-6.540958881E0,4.740519524E0,8.311046229E0
5.898167368E0,-1.886630893E0,-6.483498096E0,4.740519524E0,8.250312058E0
5.903202768E0,-1.829170108E0,-6.464344501E0,4.692635536E0,8.194781351E0
5.908207651E0,-1.695094824E0,-6.464344501E0,4.558559895E0,8.089596072E0
5.913243050E0,-1.695094824E0,-6.540958881E0,4.663905144E0,8.210328906E0
5.918278450E0,-1.810016513E0,-6.540958881E0,4.702212334E0,8.256579419E0
5.923313850E0,-1.810016513E0,-6.550535679E0,4.721365929E0,8.275081491E0
5.928318733E0,-1.867477298E0,-6.416460514E0,4.711789131E0,8.176759370E0
5.933354132E0,-1.867477298E0,-6.378153324E0,4.730942726E0,8.157826326E0
5.938389532E0,-1.810016513E0,-6.311115742E0,4.836287498E0,8.154509087E0
5.943424932E0,-1.896207690E0,-6.186617374E0,4.922478676E0,8.130229668E0
5.948429814E0,-1.810016513E0,-6.090848923E0,4.797980309E0,7.962111241E0
5.953465214E0,-1.934514999E0,-6.023811340E0,4.817133904E0,7.951945070E0
5.958500613E0,-1.944091797E0,-5.899312973E0,4.826710701E0,7.866290273E0
5.963536014E0,-2.097320795E0,-5.679046631E0,4.865017891E0,7.766513003E0
5.968540896E0,-2.394201756E0,-5.487510204E0,4.721365929E0,7.624714193E0
5.973576296E0,-2.614468336E0,-5.468356609E0,4.702212334E0,7.671321237E0
5.978611695E0,-2.911349297E0,-5.343858242E0,4.635174274E0,7.649680790E0
5.983647096E0,-3.179499865E0,-5.363011837E0,4.510675907E0,7.695278584E0
5.988651978E0,-3.342305660E0,-5.334281445E0,4.405331135E0,7.683261551E0
5.993687378E0,-3.572149038E0,-5.343858242E0,4.223371983E0,7.691159897E0
5.998722777E0,-3.734954596E0,-5.248090267E0,4.271255970E0,7.728904505E0
6.003758178E0,-3.983951569E0,-5.152322292E0,4.213795185E0,7.757213737E0
6.008763060E0,-4.108449936E0,-4.941632271E0,4.261679173E0,7.711095885E0
6.013798460E0,-4.213795185E0,-4.836287498E0,4.165910721E0,7.648565798E0
6.018833859E0,-4.309563160E0,-4.817133904E0,4.022258759E0,7.612862746E0
6.023869260E0,-4.328716755E0,-4.817133904E0,3.983951569E0,7.603580597E0
6.028874142E0,-4.357447147E0,-4.740519524E0,3.878606796E0,7.516878453E0
6.033909542E0,-4.386177540E0,-4.759673119E0,3.811569214E0,7.511398104E0
6.038944941E0,-4.347870350E0,-4.865017891E0,3.907337189E0,7.605238955E0
6.043980341E0,-4.232948780E0,-4.979939461E0,4.089296341E0,7.709733911E0
6.048985224E0,-4.165910721E0,-5.018246651E0,4.290409565E0,7.806742331E0
6.054020623E0,-4.041412354E0,-5.114014626E0,4.501099110E0,7.921240597E0
6.059056023E0,-3.888183594E0,-5.142745018E0,4.692635536E0,7.974122287E0
6.064091423E0,-3.687070608E0,-5.114014626E0,4.874594688E0,7.969272780E0
6.069096306E0,-3.600879431E0,-5.075707436E0,4.989516258E0,7.976491155E0
6.074131705E0,-3.495534420E0,-4.979939461E0,5.114014626E0,7.948062877E0
6.079167105E0,-3.361459255E0,-5.056553841E0,5.286397457E0,8.050723144E0
6.084202505E0,-3.361459255E0,-4.960785866E0,5.458779812E0,8.105990486E0
6.089207388E0,-3.466804028E0,-4.865017891E0,5.506663799E0,8.124683098E0
6.094242787E0,-3.734954596E0,-4.759673119E0,5.631162167E0,8.265250231E0
6.099278187E0,-4.108449936E0,-4.481945515E0,5.650316238E0,8.300196990E0
6.104283069E0,-4.548983097E0,-4.127603531E0,5.679046631E0,8.365520233E0
6.109318470E0,-4.903325081E0,-3.897760391E0,5.679046631E0,8.454980991E0
6.114353869E0,-5.190629482E0,-3.763684988E0,5.688623428E0,8.571370697E0
6.119389269E0,-5.449203014E0,-3.562572241E0,5.612008572E0,8.595369374E0
6.124394151E0,-5.659893036E0,-3.198653460E0,5.650316238E0,8.613468914E0
6.129429552E0,-5.947196960E0,-2.901772499E0,5.602431774E0,8.670448495E0
6.134464951E0,-6.157886982E0,-2.576161146E0,5.535394192E0,8.671606956E0
6.139469833E0,-6.426037312E0,-2.422932148E0,5.631162167E0,8.881134109E0
6.144505233E0,-6.473921299E0,-2.279279947E0,5.449203014E0,8.763594443E0
6.149540632E0,-6.540958881E0,-2.154781580E0,5.410895824E0,8.758140235E0
6.154576033E0,-6.445190907E0,-2.097320795E0,5.353435040E0,8.637042727E0
6.159580915E0,-6.148310184E0,-2.260126352E0,5.123591423E0,8.316313987E0
6.164616315E0,-5.822698593E0,-2.365471363E0,4.951209068E0,8.000859011E0
6.169651714E0,-5.238513470E0,-2.499546528E0,4.836287498E0,7.555093182E0
6.174687115E0,-4.865017891E0,-2.710236311E0,4.759673119E0,7.325862962E0
6.179691997E0,-4.443638325E0,-2.911349297E0,4.663905144E0,7.069221137E0
6.184727397E0,-3.983951569E0,-3.189076662E0,4.616020679E0,6.881113789E0
6.189762796E0,-3.754108191E0,-3.256114244E0,4.587290287E0,6.763049642E0
6.194767679E0,-3.438073635E0,-3.351882458E0,4.663905144E0,6.693838773E0
6.199803079E0,-3.275267839E0,-3.256114244E0,4.788403511E0,6.652703779E0
6.204838479E0,-3.303998232E0,-2.997540474E0,5.133168221E0,6.800813862E0
6.209873878E0,-3.438073635E0,-2.777273893E0,5.449203014E0,7.016225060E0
6.214878761E0,-3.562572241E0,-2.566584110E0,5.851428986E0,7.315633680E0
6.219914161E0,-3.916913986E0,-2.269703150E0,6.205770969E0,7.681494704E0
6.224949560E0,-4.137180328E0,-2.231395960E0,6.416460514E0,7.954014994E0
6.229984960E0,-4.462791920E0,-2.212242365E0,6.617573261E0,8.282680959E0
6.234989842E0,-4.730942726E0,-2.173935175E0,6.732495308E0,8.510834641E0
6.240025243E0,-4.836287498E0,-2.135627985E0,6.636727333E0,8.485088883E0
6.245060642E0,-4.970362663E0,-2.298433542E0,6.588842869E0,8.567388873E0
6.250065525E0,-5.152322292E0,-2.346317768E0,6.569689274E0,8.672511126E0
6.255100924E0,-5.219359875E0,-2.384624958E0,6.694188118E0,8.817046458E0
6.260136325E0,-5.161899090E0,-2.432508945E0,7.038952827E0,9.061410425E0
6.265171724E0,-5.056553841E0,-2.537853718E0,7.565677166E0,9.447164083E0
6.270176607E0,-5.046977043E0,-2.671929121E0,8.350975990E0,1.011681682E1
6.275212006E0,-4.960785866E0,-2.691082716E0,8.887276649E0,1.052782071E1
6.280247407E0,-4.970362663E0,-2.719813108E0,9.260771751E0,1.085650873E1
6.285282806E0,-5.027823448E0,-2.834734917E0,9.337387085E0,1.097731881E1
6.290287689E0,-5.114014626E0,-2.796427488E0,9.327810287E0,1.099914529E1
6.295323088E0,-5.200206280E0,-2.758120298E0,9.318233490E0,1.102174434E1
6.300358489E0,-5.324704647E0,-2.662352324E0,9.165003777E0,1.092876451E1
6.305393888E0,-5.420472622E0,-2.518700123E0,8.973467827E0,1.078185970E1
6.310398771E0,-5.363011837E0,-2.317587137E0,8.963891029E0,1.069974058E1
6.315434170E0,-5.401319027E0,-2.355894566E0,9.088389397E0,1.083158845E1
6.320469570E0,-5.401319027E0,-2.126051188E0,9.270348549E0,1.093771928E1
6.325474452E0,-5.324704647E0,-1.972822189E0,9.519346237E0,1.108433398E1
6.330509852E0,-5.161899090E0,-1.781286120E0,9.902418137E0,1.130823007E1
6.335545252E0,-4.778826714E0,-1.628057122E0,1.024718285E1,1.142333187E1
6.340580652E0,-4.510675907E0,-1.455674648E0,1.044829655E1,1.147310274E1
6.345585534E0,-4.175487995E0,-1.541865945E0,1.072602367E1,1.161290810E1
6.350620934E0,-3.782838583E0,-1.771709204E0,1.087925243E1,1.165362410E1
6.355656334E0,-3.715801001E0,-2.087743998E0,1.099417400E1,1.179142545E1
6.360661216E0,-3.801992416E0,-2.317587137E0,1.076433086E1,1.164891306E1
6.365696616E0,-4.252102375E0,-2.145204782E0,1.063983250E1,1.165711430E1
6.370732016E0,-4.845864296E0,-2.001552582E0,1.038125896E1,1.163009678E1
6.375767416E0,-5.219359875E0,-2.059013367E0,9.289502144E0,1.085246993E1
6.380772298E0,-5.420472622E0,-1.465251446E0,9.969455719E0,1.144196367E1
6.385807698E0,-5.688623428E0,-1.149216771E0,1.014183807E1,1.168494823E1
6.390843098E0,-5.679046631E0,-1.015141487E0,9.806650162E0,1.137771815E1
6.395878498E0,-5.343858242E0,-4.501099288E-1,1.053448772E1,1.182094969E1
6.400883380E0,-4.434061527E0,-2.394201756E-1,1.215296745E1,1.293881144E1
6.405918779E0,-3.974374771E0,-1.244984865E-1,1.191354752E1,1.255960864E1
6.410954180E0,-4.118026733E0,-2.968810201E-1,1.127190113E1,1.200425081E1
6.415989579E0,-4.098873138E0,-5.267243981E-1,1.147301483E1,1.219459999E1
6.420994462E0,-4.309563160E0,-5.363011956E-1,1.100375080E1,1.182972888E1
6.426029861E0,-3.821146011E0,1.915361360E-2,8.331821442E0,9.166284538E0
6.431065262E0,-3.620033026E0,6.991068721E-1,7.498639584E0,8.356014907E0
6.436100661E0,-3.418920040E0,7.661445141E-1,8.092401505E0,8.818330554E0
6.441105544E0,-3.323152065E0,4.309563041E-1,8.647856712E0,9.274399641E0
6.446140943E0,-3.610456228E0,3.351882398E-1,8.638279915E0,9.368437715E0
6.451176344E0,-3.936067581E0,4.309563041E-1,8.686163902E0,9.546087925E0
6.456181225E0,-4.089296341E0,4.692635238E-1,7.996633530E0,8.993814576E0
6.461216626E0,-4.242525578E0,7.278373241E-1,7.125144482E0,8.324449191E0
6.466252025E0,-4.338293552E0,1.091755986E0,7.383718014E0,8.633192561E0
6.471287426E0,-4.280832767E0,1.369483352E0,8.418013573E0,9.542744173E0
6.476292307E0,-4.185064793E0,1.465251446E0,9.078812599E0,1.010378975E1
6.481327708E0,-4.165910721E0,1.446097851E0,9.184157372E0,1.018797123E1
6.486363107E0,-4.089296341E0,1.379060149E0,9.097966194E0,1.006961471E1
6.491398508E0,-4.050989151E0,1.407790542E0,8.954314232E0,9.928349846E0
6.496403389E0,-3.964797974E0,1.359906554E0,9.059659004E0,9.982303846E0
6.501438789E0,-3.955221176E0,1.321599364E0,9.337387085E0,1.022629928E1
6.506474189E0,-3.926490784E0,1.254561663E0,9.615114212E0,1.046143758E1
6.511479071E0,-3.955221176E0,1.158793569E0,9.931148529E0,1.075240848E1
6.516514471E0,-4.108449936E0,1.034295082E0,1.021845245E1,1.106191203E1
6.521549871E0,-4.338293552E0,8.331822157E-1,1.030464458E1,1.121163162E1
6.526585271E0,-4.616020679E0,7.086837292E-1,1.026633644E1,1.127863216E1
6.531590153E0,-5.066130638E0,6.895300746E-1,9.931148529E0,1.116999742E1
6.536625553E0,-5.449203014E0,8.810662031E-1,9.251194954E0,1.077286866E1
6.541660953E0,-5.841852188E0,1.197100878E0,8.322244644E0,1.023816602E1
6.546696353E0,-5.995080948E0,1.695094824E0,7.469909191E0,9.726966915E0
6.551701235E0,-5.937620163E0,2.097320795E0,6.703764915E0,9.197529655E0
6.556736635E0,-5.698200226E0,2.336740971E0,6.090848923E0,8.661886906E0
6.561772035E0,-5.133168221E0,2.470816135E0,5.688623428E0,8.050762999E0
6.566776918E0,-4.616020679E0,2.355894566E0,5.640739441E0,7.660014854E0
6.571812317E0,-4.012681961E0,2.135627985E0,5.679046631E0,7.274207451E0
6.576847717E0,-3.533841610E0,1.810016513E0,5.880159378E0,7.095101875E0
6.581883117E0,-3.160346270E0,1.570596337E0,6.196194172E0,7.130735138E0
6.586888000E0,-3.093308687E0,1.283292055E0,6.560112476E0,7.365492029E0
6.591923399E0,-3.294421434E0,1.187524080E0,7.010222435E0,7.836239188E0
6.596958798E0,-3.715801001E0,1.264138460E0,7.431602001E0,8.404399528E0
6.601994199E0,-4.252102375E0,1.426944256E0,7.718906403E0,8.927377026E0
6.606999081E0,-4.807557106E0,1.829170108E0,7.967903137E0,9.483983816E0
6.612034481E0,-5.046977043E0,2.308010340E0,7.948749542E0,9.694406031E0
6.617069880E0,-4.999093056E0,2.604891539E0,7.575253963E0,9.442503054E0
6.622074763E0,-4.481945515E0,2.815581083E0,7.374141216E0,9.077075031E0
6.627110163E0,-3.955221176E0,2.863465309E0,7.220912457E0,8.716925194E0
6.632145563E0,-3.236960649E0,2.844311714E0,7.230489254E0,8.417125295E0
6.637180962E0,-2.499546528E0,2.719813108E0,7.287950039E0,8.170638406E0
6.642185845E0,-1.829170108E0,2.480392933E0,7.508216381E0,8.116127501E0
6.647221245E0,-1.340752959E0,2.202665567E0,7.814674377E0,8.229124481E0
6.652256645E0,-9.576807022E-1,2.011129379E0,8.121131897E0,8.421079325E0
6.657261527E0,-8.331822157E-1,1.924938202E0,8.475474358E0,8.731165173E0
6.662296927E0,-8.906430602E-1,1.771709204E0,8.638279915E0,8.862961043E0
6.667332327E0,-1.053448796E0,1.714248419E0,9.069235802E0,9.289749191E0
6.672367727E0,-1.398213744E0,1.714248419E0,9.260771751E0,9.521320431E0
6.677372609E0,-1.752555609E0,1.819593310E0,9.270348549E0,9.608419911E0
6.682408008E0,-2.183511972E0,2.078166962E0,8.954314232E0,9.448081595E0
6.687443409E0,-2.528276920E0,2.260126352E0,8.762778282E0,9.396096984E0
6.692478808E0,-2.614468336E0,2.394201756E0,8.580819130E0,9.284293385E0
6.697483691E0,-2.719813108E0,2.518700123E0,8.657433510E0,9.417663650E0
6.702519090E0,-2.528276920E0,2.566584110E0,8.743624687E0,9.456770635E0
6.707554491E0,-2.279279947E0,2.662352324E0,9.030928612E0,9.687151726E0
6.712559372E0,-1.972822189E0,2.671929121E0,9.222464561E0,9.802299996E0
6.717594773E0,-1.618480325E0,2.643198729E0,9.509769440E0,1.000208443E1
6.722630172E0,-1.331176162E0,2.681505919E0,9.873687744E0,1.031756820E1
6.727665572E0,-1.063025594E0,2.624045134E0,1.021845245E1,1.060341487E1
6.732670454E0,-8.906430602E-1,2.652775526E0,1.044829655E1,1.081653197E1
6.737705855E0,-7.182605267E-1,2.700659513E0,1.073560047E1,1.109335736E1
6.742741254E0,-6.607996821E-1,2.729389906E0,1.079306126E1,1.115241663E1
6.747776654E0,-5.937620401E-1,2.748543501E0,1.082179165E1,1.118115465E1
6.752781536E0,-6.607996821E-1,2.777273893E0,1.076433086E1,1.113645929E1
6.757816937E0,-7.469909191E-1,2.940079689E0,1.063025570E1,1.105460991E1
6.762852336E0,-8.140285611E-1,3.026270866E0,1.025675964E1,1.072483456E1
6.767887736E0,-5.841852427E-1,3.380612850E0,9.672574997E0,1.026296851E1
6.772892618E0,3.064578176E-1,4.050989151E0,9.548076630E0,1.037642505E1
6.777928018E0,1.110909581E0,4.539406300E0,9.567230225E0,1.064763935E1
6.782963418E0,1.790862918E0,4.884171486E0,9.442731857E0,1.078088614E1
6.787998817E0,2.202665567E0,4.989516258E0,9.279925346E0,1.076401517E1
6.793003700E0,2.240972757E0,4.740519524E0,9.222464561E0,1.060888009E1
6.798039100E0,2.001552582E0,4.434061527E0,9.356540680E0,1.054570850E1
6.803074500E0,1.637633920E0,4.003105164E0,9.500192642E0,1.043840774E1
6.808109899E0,1.091755986E0,3.667917013E0,9.662998199E0,1.039322282E1
6.813114782E0,6.033388376E-1,3.476380825E0,9.816226959E0,1.043108590E1
6.818150182E0,2.106897533E-1,3.275267839E0,9.969455719E0,1.049579997E1
6.823185582E0,-1.436520964E-1,3.007117271E0,9.883264542E0,1.033161692E1
6.828220981E0,-5.075707436E-1,2.930502892E0,9.854534149E0,1.029355714E1
6.833256382E0,-6.991068721E-1,2.882618904E0,9.806650162E0,1.024541993E1
6.838261264E0,-9.289502501E-1,2.777273893E0,9.662998199E0,1.009701605E1
6.843296664E0,-1.005564690E0,2.643198729E0,9.519346237E0,9.930539394E0
6.848332063E0,-1.063025594E0,2.652775526E0,9.500192642E0,9.920730903E0
6.853367464E0,-9.576807022E-1,2.566584110E0,9.500192642E0,9.887272959E0
6.858372346E0,-8.331822157E-1,2.566584110E0,9.615114212E0,9.986589403E0
6.863407746E0,-7.086837292E-1,2.624045134E0,9.672574997E0,1.004721616E1
6.868443145E0,-6.033388376E-1,2.806004286E0,9.777919769E0,1.019045597E1
6.873478545E0,-5.075707436E-1,2.978386879E0,9.797073364E0,1.025236865E1
6.878513945E0,-2.968810201E-1,3.141192675E0,9.816226959E0,1.031084582E1
6.883518827E0,-1.819593310E-1,3.284844637E0,9.979032516E0,1.050734997E1
6.888554227E0,2.873042040E-2,3.351882458E0,1.017056847E1,1.070870694E1
6.893589627E0,2.873041928E-1,3.332728863E0,1.026633644E1,1.079755941E1
6.898625027E0,3.830722570E-1,3.380612850E0,1.043871975E1,1.097916926E1
6.903660427E0,3.926490843E-1,3.294421434E0,1.042914295E1,1.094414951E1
6.908665309E0,3.734954596E-1,3.399766445E0,1.035252857E1,1.090287845E1
6.913700709E0,1.053448766E-1,3.399766445E0,1.010353088E1,1.066071507E1
6.918736109E0,-1.819593310E-1,3.505111217E0,9.835380554E0,1.044287434E1
6.923771509E0,-5.363011956E-1,3.620033026E0,9.318233490E0,1.001108053E1
6.928806909E0,-9.481038451E-1,3.591302633E0,8.801085472E0,9.552772424E0
6.933811791E0,-1.225831270E0,3.687070608E0,8.360552788E0,9.219327247E0
6.938847191E0,-1.503558636E0,3.782838583E0,7.948749542E0,8.930463348E0
6.943882591E0,-1.484405041E0,3.840299606E0,7.718906403E0,8.748307004E0
6.948917991E0,-1.522712231E0,3.840299606E0,7.479485989E0,8.544545878E0
6.953953390E0,-1.312022567E0,3.687070608E0,7.383718014E0,8.356744856E0
6.958958272E0,-1.082179189E0,3.677493811E0,7.173028469E0,8.133105799E0
6.963993672E0,-8.044517636E-1,3.457227230E0,7.134721279E0,7.968927813E0
6.969029072E0,-3.926490843E-1,3.294421434E0,7.125144482E0,7.859711812E0
6.974064472E0,-7.661445439E-2,3.179499865E0,7.086836815E0,7.767776078E0
6.979099872E0,9.576806426E-2,2.959233284E0,7.220912457E0,7.804345575E0
6.984104754E0,3.926490843E-1,2.786850691E0,7.287950039E0,7.812485254E0
6.989140154E0,6.607996821E-1,2.604891539E0,7.201758862E0,7.686835945E0
6.994175554E0,9.864110947E-1,2.384624958E0,7.010222435E0,7.470117912E0
6.999210954E0,9.576807022E-1,2.240972757E0,6.722918510E0,7.150996051E0
7.004215836E0,9.576807022E-1,2.308010340E0,6.358999729E0,6.832345250E0
7.009251236E0,8.331822157E-1,2.432508945E0,6.014234543E0,6.540818719E0
7.014286636E0,6.129156351E-1,2.547430515E0,5.707777023E0,6.280428835E0
7.019322036E0,2.489969730E-1,2.614468336E0,5.257667065E0,5.877117247E0
7.024326918E0,-8.619125932E-2,2.815581083E0,5.037400246E0,5.771509942E0
7.029362318E0,-4.692635238E-1,2.930502892E0,4.759673119E0,5.609148211E0
7.034397718E0,-7.661445141E-1,3.122039080E0,4.548983097E0,5.570220162E0
7.039433118E0,-9.959878922E-1,3.236960649E0,4.376600742E0,5.533944361E0
7.044468518E0,-1.187524080E0,3.418920040E0,4.175487995E0,5.525751323E0
7.049503917E0,-1.369483352E0,3.533841610E0,3.974374771E0,5.491737065E0
7.054508799E0,-1.513135433E0,3.706224203E0,3.773261786E0,5.501198159E0
7.059544200E0,-1.264138460E0,3.725377798E0,3.505111217E0,5.268993303E0
7.064579599E0,-1.072602391E0,3.801992416E0,3.227383852E0,5.101139946E0
7.069614999E0,-7.852981687E-1,3.859453201E0,3.227383852E0,5.091962171E0
7.074650399E0,-6.991068721E-1,3.840299606E0,3.093308687E0,4.980482920E0
7.079655282E0,-5.937620401E-1,3.696647406E0,2.853888512E0,4.707699548E0
7.084690681E0,-3.639186621E-1,2.987963676E0,2.384624958E0,3.840156236E0
7.089726081E0,-1.628057212E-1,1.522712231E0,1.474828243E0,2.126094209E0
7.094761481E0,1.915361360E-2,1.647210717E0,1.168370485E0,2.019593919E0
7.099796881E0,-5.075707436E-1,1.177947283E0,1.331176162E0,1.848571836E0
7.104832281E0,-4.501099288E-1,8.044517636E-1,1.168370485E0,1.488230889E0
7.109837163E0,-9.289502501E-1,3.256114423E-1,5.841852427E-1,1.144658803E0
7.114872563E0,-7.661445439E-2,-9.576806426E-2,1.819593310E-1,2.194322103E-1
7.119907963E0,-1.915361360E-2,-2.298433632E-1,3.830722719E-2,2.337996496E-1
7.124943363E0,-6.703764945E-2,-2.873041928E-1,8.619125932E-2,3.073543213E-1
7.129978763E0,-2.873042040E-2,-1.915361285E-1,2.873042040E-2,1.957982703E-1
7.135014162E0,-2.873042040E-2,-2.011129409E-1,8.619125932E-2,2.206825440E-1
7.140019044E0,-3.830722719E-2,-2.202665508E-1,9.576806426E-2,2.432207211E-1
7.145054445E0,-9.576806799E-3,-2.106897533E-1,1.244984865E-1,2.449117403E-1
7.150089844E0,0.000000000E0,-2.777273953E-1,5.746084079E-2,2.836093340E-1
7.155125244E0,-4.788403213E-2,-1.819593310E-1,2.873042040E-2,1.903352719E-1
7.160160644E0,2.873042040E-2,-2.489969730E-1,9.576806426E-2,2.683215455E-1
7.165165526E0,-9.576806799E-3,-2.777273953E-1,8.619125932E-2,2.909521516E-1
7.170200926E0,-1.244984865E-1,-2.681505978E-1,1.532289088E-1,3.329920641E-1
7.175236326E0,-5.746084079E-2,-2.298433632E-1,1.340752989E-1,2.722239989E-1
7.180271726E0,-6.703764945E-2,-2.394201756E-1,5.746084079E-2,2.551819256E-1
7.185307126E0,-9.576806799E-3,-2.873041928E-1,1.244984865E-1,3.132655225E-1
7.190312008E0,-9.576806799E-3,-2.394201756E-1,1.244984865E-1,2.700252004E-1
7.195347408E0,-2.873042040E-2,-2.489969730E-1,1.723825186E-1,3.042049677E-1
7.200382808E0,-9.576806799E-3,-2.011129409E-1,1.340752989E-1,2.418973253E-1
7.205418208E0,-3.830722719E-2,-2.585737705E-1,1.819593310E-1,3.184918156E-1
7.210453607E0,-2.873042040E-2,-2.681505978E-1,2.298433632E-1,3.543418572E-1
7.215458490E0,-3.830722719E-2,-2.489969730E-1,1.340752989E-1,2.853824136E-1
7.220493890E0,-4.788403213E-2,-2.298433632E-1,1.149216816E-1,2.613959545E-1
7.225529290E0,-3.830722719E-2,-2.202665508E-1,1.819593310E-1,2.882602907E-1
7.230564689E0,-9.576806799E-3,-2.873041928E-1,2.011129409E-1,3.508302003E-1
7.235600089E0,-3.830722719E-2,-2.585737705E-1,2.298433632E-1,3.480744318E-1
7.240604972E0,-5.746084079E-2,-2.489969730E-1,2.011129409E-1,3.251886465E-1
7.245640371E0,-5.746084079E-2,-2.873041928E-1,2.011129409E-1,3.553756638E-1
7.250675771E0,9.576806799E-3,-2.777273953E-1,2.298433632E-1,3.606274988E-1
7.255711171E0,-1.149216816E-1,-1.819593310E-1,2.298433632E-1,3.148716606E-1
7.260746571E0,-4.788403213E-2,-2.202665508E-1,2.298433632E-1,3.219288827E-1
7.265751453E0,-3.830722719E-2,-2.298433632E-1,2.489969730E-1,3.410203921E-1
7.270786853E0,-6.703764945E-2,-2.106897533E-1,2.873041928E-1,3.625298854E-1
7.275822253E0,1.915361360E-2,-2.394201756E-1,2.489969730E-1,3.459600757E-1
7.280857653E0,-4.788403213E-2,-2.585737705E-1,1.819593310E-1,3.197850426E-1
7.285893053E0,-5.746084079E-2,-2.585737705E-1,1.819593310E-1,3.213585866E-1
7.290897935E0,-7.661445439E-2,-2.489969730E-1,2.394201756E-1,3.538238088E-1
7.295933335E0,-1.053448766E-1,-3.256114423E-1,2.777273953E-1,4.407412625E-1
7.300968735E0,-6.703764945E-2,-2.489969730E-1,2.585737705E-1,3.651765790E-1
7.306004135E0,-1.053448766E-1,-3.160346150E-1,3.256114423E-1,4.658306906E-1
7.311039535E0,-6.703764945E-2,-2.873041928E-1,2.489969730E-1,3.860534137E-1
7.316074934E0,-1.053448766E-1,-2.968810201E-1,3.160346150E-1,4.462216501E-1
7.321079817E0,-7.661445439E-2,-2.777273953E-1,2.394201756E-1,3.745988537E-1
7.326115217E0,-4.788403213E-2,-2.873041928E-1,3.639186621E-1,4.661259190E-1
7.331150616E0,-5.746084079E-2,-2.585737705E-1,3.256114423E-1,4.197439153E-1
7.336186016E0,-1.915361360E-2,-2.681505978E-1,2.873041928E-1,3.934657586E-1
7.341221416E0,-8.619125932E-2,-2.968810201E-1,3.256114423E-1,4.489878446E-1
7.346226299E0,-3.830722719E-2,-2.394201756E-1,2.968810201E-1,3.833116280E-1
7.351261698E0,-4.788403213E-2,-3.064578176E-1,3.543418646E-1,4.709218953E-1
7.356297098E0,-4.788403213E-2,-2.681505978E-1,2.968810201E-1,4.029093741E-1
7.361332498E0,-2.873042040E-2,-3.064578176E-1,3.160346150E-1,4.411572383E-1
7.366337380E0,-4.788403213E-2,-2.202665508E-1,3.639186621E-1,4.280736228E-1
7.371372780E0,-5.746084079E-2,-3.064578176E-1,2.968810201E-1,4.305304661E-1
7.376408180E0,-1.053448766E-1,-3.160346150E-1,3.639186621E-1,4.933682332E-1
7.381443580E0,-8.619125932E-2,-3.447650373E-1,2.968810201E-1,4.630660905E-1
7.386448462E0,9.576806799E-3,-3.447650373E-1,3.256114423E-1,4.743178866E-1
7.391483862E0,-2.873042040E-2,-3.160346150E-1,3.543418646E-1,4.756694987E-1
7.396519262E0,-5.746084079E-2,-2.777273953E-1,3.830722570E-1,4.766325717E-1
7.401554662E0,-1.915361360E-2,-2.681505978E-1,3.734954596E-1,4.601852478E-1
7.406590062E0,-3.830722719E-2,-2.968810201E-1,4.118026793E-1,5.091043414E-1
7.411594944E0,-9.576806799E-3,-2.681505978E-1,4.692635238E-1,5.405596296E-1
7.416630343E0,0.000000000E0,-2.394201756E-1,5.937620401E-1,6.402151051E-1
7.421665744E0,1.194227791E1,-8.140285611E-1,5.631162167E0,1.322840245E1
7.426670625E0,7.826166534E1,-4.903325081E0,3.606625366E1,8.631167657E1
7.431706026E0,7.826166534E1,-1.084094524E1,3.542461014E1,8.658705076E1
7.436741425E0,7.826166534E1,-5.861005783E0,3.281013870E1,8.506318154E1
7.441776826E0,4.469495773E1,8.829815865E0,7.837658691E1,9.065591140E1
7.446781707E0,1.536119843E1,1.789905167E1,7.837658691E1,8.184883532E1
7.451817108E0,-1.017056847E1,2.625960350E1,7.837658691E1,8.328203057E1
7.456852507E0,-3.488830566E1,3.140234947E1,7.837658691E1,9.135748902E1
7.461887908E0,-4.833414459E1,2.816538811E1,6.474879456E1,8.556801398E1
7.466923307E0,-5.017288971E1,2.245761108E1,4.831499100E1,7.318470819E1
7.471928190E0,-4.004063034E1,1.480574322E1,3.864241409E1,5.758210032E1
7.476963589E0,-2.896984100E1,9.423578262E0,3.341347885E1,4.521632541E1
7.481998990E0,-1.648168373E1,4.596867085E0,3.173753738E1,3.605618345E1
7.487034389E0,-6.215347767E0,4.501099288E-1,3.036805344E1,3.100083574E1
7.492039272E0,6.320692301E-1,-2.413355350E0,2.659479332E1,2.671154858E1
7.497074671E0,5.094861031E0,-3.476380825E0,2.002510262E1,2.095346194E1
7.502110072E0,6.560112476E0,-2.719813108E0,1.196143150E1,1.391072617E1
7.507145471E0,5.640739441E0,-1.771709204E0,4.826710701E0,7.632432845E0
7.512150353E0,3.122039080E0,-1.244984865E0,2.059013367E0,3.941655918E0
7.517185753E0,1.551442742E0,-7.182605267E-1,5.267243981E-1,1.788941407E0
7.522221153E0,4.979939461E-1,-3.639186621E-1,5.746084079E-2,6.194646973E-1
7.527256553E0,3.830722719E-2,-1.628057212E-1,-2.106897533E-1,2.690043097E-1
7.532261435E0,-8.619125932E-2,-3.830722719E-2,-2.106897533E-1,2.308387944E-1
7.537296835E0,-1.244984865E-1,-1.819593310E-1,-1.628057212E-1,2.740707466E-1
7.542332235E0,-1.149216816E-1,-1.149216816E-1,-6.703764945E-2,1.758068037E-1
7.547367635E0,-7.661445439E-2,-1.436520964E-1,-1.340752989E-1,2.109072905E-1
7.552403034E0,-1.149216816E-1,-4.788403213E-2,-9.576806426E-2,1.570713073E-1
7.557407917E0,-1.532289088E-1,-1.244984865E-1,-8.619125932E-2,2.154249401E-1
7.562443317E0,-1.436520964E-1,-6.703764945E-2,-3.830722719E-2,1.630871390E-1
7.567478717E0,-1.436520964E-1,-8.619125932E-2,-3.830722719E-2,1.718496483E-1
7.572514116E0,-1.819593310E-1,-6.703764945E-2,-2.873042040E-2,1.960323485E-1
7.577518999E0,-2.202665508E-1,-1.244984865E-1,-4.788403213E-2,2.575074893E-1
7.582554399E0,-1.628057212E-1,-1.819593310E-1,2.873042040E-2,2.458461675E-1
7.587589799E0,-2.106897533E-1,-1.244984865E-1,9.576806799E-3,2.449117403E-1
7.592594681E0,-2.011129409E-1,-1.340752989E-1,2.873042040E-2,2.434091983E-1
7.597630080E0,-1.244984865E-1,-7.661445439E-2,9.576806799E-3,1.464969726E-1
7.602665480E0,-1.628057212E-1,-8.619125932E-2,-5.746084079E-2,1.929673139E-1
7.607700880E0,-2.011129409E-1,-1.532289088E-1,9.576806799E-3,2.530162618E-1
7.612705763E0,-2.011129409E-1,-1.053448766E-1,2.873042040E-2,2.288436040E-1
7.617741162E0,-2.202665508E-1,-1.149216816E-1,4.788403213E-2,2.530162580E-1
7.622776562E0,-2.394201756E-1,-1.149216816E-1,9.576806799E-3,2.657456088E-1
7.627811962E0,-2.106897533E-1,-1.149216816E-1,-9.576806799E-3,2.401850959E-1
7.632816845E0,-2.394201756E-1,-6.703764945E-2,6.703764945E-2,2.575075015E-1
7.637852244E0,-2.298433632E-1,-1.053448766E-1,9.576806799E-3,2.530162640E-1
7.642887644E0,-2.585737705E-1,-1.436520964E-1,9.576806799E-3,2.959527578E-1
7.647923044E0,-1.819593310E-1,-1.628057212E-1,5.746084079E-2,2.508319143E-1
7.652927927E0,2.308010340E0,-6.033388376E-1,1.905784607E0,3.053349710E0
7.657963326E0,8.245630264E0,-1.733402014E0,5.554547787E0,1.009198207E1
7.662998726E0,1.499727917E1,-3.562572241E0,8.552088737E0,1.762806073E1
7.668034126E0,2.150950813E1,-5.937620163E0,7.824251175E0,2.364599712E1
7.673039009E0,2.843353844E1,-7.527369976E0,5.334281445E0,2.989284137E1
7.678074408E0,3.281971741E1,-8.791508675E0,3.763684988E0,3.418464275E1
7.683109808E0,3.385401154E1,-9.643844604E0,2.327163935E0,3.527766330E1
7.688145208E0,3.093308640E1,-9.873687744E0,2.403778553E0,3.255954077E1
7.693150090E0,2.612552834E1,-9.346963882E0,1.905784607E0,2.781260469E1
7.698185490E0,2.153823853E1,-8.925583839E0,1.561019540E0,2.336661181E1
7.703220889E0,1.731486702E1,-8.350975990E0,1.398213744E0,1.927429432E1
7.708256290E0,1.373314095E1,-7.345410824E0,1.369483352E0,1.563424782E1
7.713261172E0,1.057279491E1,-5.956773758E0,1.905784607E0,1.228410196E1
7.718296572E0,7.948749542E0,-3.275267839E0,2.365471363E0,8.916583060E0
7.723331971E0,6.540958881E0,2.968810201E-1,2.039859772E0,6.858083502E0
7.728367372E0,6.205770969E0,3.380612850E0,5.267243981E-1,7.086435998E0
7.733402771E0,5.813121796E0,5.698200226E0,-6.703764796E-1,8.167697071E0
7.738407654E0,4.903325081E0,6.866570473E0,-1.924938202E0,8.654350004E0
7.743443053E0,3.744531393E0,7.019799232E0,-2.240972757E0,8.265655178E0
7.748478454E0,2.825158119E0,6.397306919E0,-1.924938202E0,7.253443410E0
7.753513853E0,2.557007313E0,5.382165432E0,-1.608903527E0,6.172079204E0
7.758518736E0,2.432508945E0,4.299986362E0,-1.225831270E0,5.090151745E0
7.763554135E0,2.288856745E0,3.332728863E0,-8.427590132E-1,4.129913997E0
7.768589536E0,2.250549555E0,2.451662540E0,-5.171475410E-1,3.367946569E0
7.773624935E0,2.183511972E0,1.790862918E0,-4.022258818E-1,2.852490173E0
7.778629818E0,2.059013367E0,1.216254473E0,-1.628057212E-1,2.396939025E0
7.783665217E0,1.944091797E0,8.427590132E-1,2.873042040E-2,2.119094407E0
7.788700617E0,1.982398987E0,5.458779931E-1,5.746084079E-2,2.056985725E0
7.793736017E0,2.154781580E0,3.351882398E-1,2.011129409E-1,2.189950052E0
7.798740899E0,2.240972757E0,1.628057212E-1,3.830722570E-1,2.279300102E0
7.803776299E0,2.308010340E0,1.819593310E-1,5.746083856E-1,2.385413114E0
7.808811699E0,2.796427488E0,1.436520964E-1,7.661445141E-1,2.903036348E0
7.813816582E0,3.198653460E0,6.703764945E-2,1.139639974E0,3.396271083E0
7.818851981E0,3.926490784E0,1.244984865E-1,1.541865945E0,4.220210935E0
7.823887381E0,4.932055473E0,1.340752989E-1,1.905784607E0,5.289155164E0
7.828922781E0,6.224924564E0,2.011129409E-1,2.489969730E0,6.707464611E0
7.833927664E0,7.335834026E0,2.011129409E-1,3.112462282E0,7.971344224E0
7.838963063E0,7.393294811E0,2.011129409E-1,3.782838583E0,8.307293321E0
7.843998463E0,7.489062786E0,2.394201756E-1,3.840299606E0,8.419696224E0
7.849033863E0,6.627150536E0,2.202665508E-1,3.658340216E0,7.573050555E0
7.854038746E0,4.836287498E0,2.873041928E-1,3.102885485E0,5.753270270E0
7.859074145E0,2.863465309E0,4.022258818E-1,2.585737944E0,3.879079781E0
7.864109545E0,9.481038451E-1,3.734954596E-1,2.116474390E0,2.349013325E0
7.869114427E0,-5.746083856E-1,5.363011956E-1,2.106897593E0,2.248735475E0
7.874149826E0,-1.982398987E0,1.628057122E0,8.753201485E0,9.121349241E0
7.879185227E0,-3.332728863E0,4.299986362E0,1.968991470E1,2.042767009E1
7.884220626E0,-7.249642849E0,6.770802498E0,2.896984100E1,3.062111650E1
7.889225509E0,-1.151132202E1,8.236053467E0,3.648763275E1,3.913681713E1
7.894260908E0,-1.314895535E1,7.402871609E0,3.964797974E1,4.242239776E1
7.899296309E0,-1.198058510E1,5.640739441E0,3.673662949E1,3.905038165E1
7.904331708E0,-8.877699852E0,3.801992416E0,2.952529526E1,3.106463843E1
7.909336591E0,-7.048529625E0,2.911349297E0,2.324291039E1,2.446202379E1
7.914371990E0,-5.487510204E0,2.355894566E0,1.888546371E1,1.980716404E1
7.919407391E0,-2.001552582E0,1.771709204E0,1.569638634E1,1.592236510E1
7.924442790E0,1.867477298E0,1.647210717E0,1.255519390E1,1.279975267E1
7.929447673E0,4.443638325E0,1.762132406E0,8.868123055E0,1.007445476E1
7.934483072E0,4.539406300E0,1.857900500E0,6.962338448E0,8.516581502E0
7.939518473E0,3.677493811E0,1.704671621E0,5.784391403E0,7.063218103E0
7.944553872E0,2.557007313E0,1.331176162E0,5.085284233E0,5.845548058E0
7.949558755E0,1.522712231E0,7.948749661E-1,4.635174274E0,4.943209413E0
7.954594154E0,6.033388376E-1,3.543418646E-1,4.386177540E0,4.441635883E0
7.959629555E0,7.661445439E-2,1.053448766E-1,4.175487995E0,4.177519278E0
7.964664954E0,-2.106897533E-1,-1.244984865E-1,4.070142746E0,4.077493350E0
7.969669836E0,-2.681505978E-1,-1.915361285E-1,4.108449936E0,4.121644297E0
7.974705236E0,-3.830722719E-2,-3.351882398E-1,4.414907932E0,4.427779427E0
7.979740636E0,2.968810201E-1,-3.160346150E-1,4.893748283E0,4.912920565E0
7.984776036E0,5.841852427E-1,-2.489969730E-1,5.621585369E0,5.657339830E0
7.989780918E0,5.267243981E-1,5.746084079E-2,6.627150536E0,6.648297869E0
7.994816318E0,2.489969730E-1,4.692635238E-1,7.699752808E0,7.718056818E0
7.999851718E0,5.746084079E-2,6.799532771E-1,8.762778282E0,8.789307221E0
8.004856601E0,1.915361285E-1,8.619126081E-1,1.002691650E1,1.006571577E1
8.009892000E0,5.171475410E-1,1.082179189E0,1.129105568E1,1.135458021E1
8.014927400E0,1.244984865E0,1.216254473E0,1.267011547E1,1.278910037E1
8.019962800E0,2.403778553E0,1.436521053E0,1.378102493E1,1.406265950E1
8.024967683E0,3.495534420E0,1.589749932E0,1.432690334E1,1.483260682E1
8.030003082E0,4.280832767E0,1.819593310E0,1.427901936E1,1.501755116E1
8.035038482E0,3.859453201E0,2.135627985E0,1.357991219E1,1.427831576E1
8.040073882E0,2.796427488E0,2.279279947E0,1.235408115E1,1.287006002E1
8.045078765E0,1.819593310E0,2.173935175E0,1.131020927E1,1.166009210E1
8.050114164E0,1.340752959E0,2.135627985E0,1.012268448E1,1.043203079E1
8.055149564E0,1.072602391E0,1.944091797E0,9.193734169E0,9.458050369E0
8.060184964E0,9.002198577E-1,1.867477298E0,8.188169479E0,8.446536963E0
8.065189846E0,7.661445141E-1,1.723825216E0,7.460332394E0,7.695135490E0
8.070225246E0,6.224924326E-1,1.656787634E0,7.058106422E0,7.276627540E0
8.075260645E0,4.979939461E-1,1.417367458E0,6.713341713E0,6.879381181E0
8.080296046E0,6.512228847E-1,1.359906554E0,6.636727333E0,6.805849453E0
8.085300928E0,9.002198577E-1,1.244984865E0,6.722918510E0,6.896232044E0
8.090336328E0,1.110909581E0,1.130063176E0,7.096413612E0,7.271193096E0
8.095371727E0,1.043871999E0,1.101332784E0,7.891288757E0,8.035859687E0
8.100407128E0,8.906430602E-1,1.091755986E0,8.791508675E0,8.903695916E0
8.105412010E0,7.469909191E-1,1.063025594E0,9.768342972E0,9.854366710E0
8.110447410E0,6.799532771E-1,1.101332784E0,1.068771648E1,1.076580485E1
8.115482809E0,6.512228847E-1,1.091755986E0,1.137724686E1,1.144804649E1
8.120518210E0,6.512228847E-1,1.216254473E0,1.185608673E1,1.193608641E1
8.125523092E0,7.086837292E-1,1.177947283E0,1.214339066E1,1.222095451E1
8.130558492E0,8.619126081E-1,1.139639974E0,1.203804588E1,1.212255012E1
8.135593891E0,9.959878922E-1,1.091755986E0,1.154005241E1,1.163429124E1
8.140629292E0,1.139639974E0,1.158793569E0,1.071644688E1,1.083899513E1
8.145634173E0,1.331176162E0,1.082179189E0,9.797073364E0,9.946144392E0
8.150669573E0,1.484405041E0,1.034295082E0,9.289502144E0,9.464041141E0
8.155704973E0,1.503558636E0,1.024718285E0,8.848969460E0,9.034101872E0
8.160740373E0,1.398213744E0,1.082179189E0,8.609549522E0,8.789223882E0
8.165745255E0,1.331176162E0,1.149216771E0,8.552088737E0,8.731033784E0
8.170780655E0,1.302445769E0,1.254561663E0,8.829815865E0,9.013098144E0
8.175816055E0,1.197100878E0,1.321599364E0,9.165003777E0,9.336860801E0
8.180851455E0,1.168370485E0,1.407790542E0,9.471462250E0,9.646531032E0
8.185856337E0,1.149216771E0,1.503558636E0,9.787496567E0,9.968775090E0
8.190891737E0,1.187524080E0,1.628057122E0,1.001733971E1,1.021801733E1
8.195927137E0,1.130063176E0,1.637633920E0,1.004607010E1,1.024121146E1
8.200962537E0,1.101332784E0,1.685518026E0,9.969455719E0,1.017074001E1
8.205967419E0,1.034295082E0,1.685518026E0,9.749189377E0,9.947734960E0
8.211002819E0,1.024718285E0,1.551442742E0,9.538499832E0,9.718024552E0
8.216038219E0,1.034295082E0,1.599326730E0,9.299078941E0,9.492127341E0
8.221073619E0,1.015141487E0,1.465251446E0,9.203310966E0,9.374348339E0
8.226078501E0,1.005564690E0,1.388636947E0,9.241618156E0,9.399307372E0
8.231113901E0,1.053448796E0,1.264138460E0,9.414001465E0,9.556737100E0
8.236149301E0,1.063025594E0,1.206677675E0,9.662998199E0,9.795898562E0
8.241154183E0,1.053448796E0,1.158793569E0,9.797073364E0,9.921451678E0
8.246189582E0,1.110909581E0,1.130063176E0,9.988609314E0,1.011352950E1
8.251224983E0,1.101332784E0,1.177947283E0,9.959878922E0,1.008958284E1
8.256260382E0,1.197100878E0,1.063025594E0,1.008437729E1,1.021066791E1
8.261265265E0,1.110909581E0,9.959878922E-1,9.998186111E0,1.010889893E1
8.266300664E0,1.158793569E0,1.101332784E0,9.892841339E0,1.002117988E1
8.271336065E0,1.158793569E0,1.158793569E0,9.768342972E0,9.904853835E0
8.276371464E0,1.110909581E0,1.216254473E0,9.710882187E0,9.849600392E0
8.281376347E0,1.053448796E0,1.244984865E0,9.615114212E0,9.752443950E0
8.286411746E0,1.101332784E0,1.321599364E0,9.567230225E0,9.720671425E0
8.291447147E0,1.082179189E0,1.350329757E0,9.624691010E0,9.779017296E0
8.296452029E0,1.043871999E0,1.379060149E0,9.672574997E0,9.825995253E0
8.301487429E0,1.063025594E0,1.436521053E0,9.682151794E0,9.845693450E0
8.306522828E0,1.072602391E0,1.436521053E0,9.605537415E0,9.771408171E0
8.311558229E0,1.139639974E0,1.436521053E0,9.605537415E0,9.778993866E0
8.316563111E0,1.082179189E0,1.465251446E0,9.576807022E0,9.748502774E0
