"Time (s)","Acceleration x (m/s^2)","Acceleration y (m/s^2)","Acceleration z (m/s^2)","Absolute acceleration (m/s^2)"
1.222917700E-2,-2.279279947E0,6.426037312E0,7.422025204E0,1.007846867E1
1.723405600E-2,-2.978386879E0,6.598419666E0,8.197746277E0,1.093677167E1
2.226945100E-2,-2.193088770E0,6.588842869E0,7.785943985E0,1.043280463E1
2.730484800E-2,-1.838746905E0,6.493074894E0,7.192182064E0,9.862479131E0
3.234024300E-2,-1.944091797E0,6.253654957E0,6.952761650E0,9.551365756E0
3.734512200E-2,-1.934514999E0,6.062118530E0,6.943184853E0,9.418038291E0
4.238051700E-2,-1.790862918E0,5.918466568E0,6.914454460E0,9.276050722E0
4.741591300E-2,-1.436521053E0,5.746084213E0,6.924031258E0,9.111711441E0
5.245130900E-2,-1.005564690E0,5.583278179E0,7.029376030E0,9.033066088E0
5.745618700E-2,-6.512228847E-1,5.449203014E0,7.326257229E0,9.153794280E0
6.249158300E-2,-5.937620401E-1,5.497087002E0,7.642292023E0,9.432663793E0
6.752697900E-2,-7.757213712E-1,5.602431774E0,8.063671112E0,9.849455682E0
7.256237500E-2,-5.650315881E-1,5.592854977E0,8.398859978E0,1.010644034E1
7.756725300E-2,-3.256114423E-1,5.516240597E0,8.619126320E0,1.023837251E1
8.260264900E-2,-6.703764945E-2,5.487510204E0,8.781931877E0,1.035565497E1
8.763804500E-2,4.788403213E-2,5.420472622E0,8.973467827E0,1.048365114E1
9.264292300E-2,1.532289088E-1,5.286397457E0,9.021351814E0,1.045725900E1
9.767831900E-2,2.873041928E-1,5.209783077E0,9.165003777E0,1.054616886E1
1.027137150E-1,4.213795066E-1,4.903325081E0,9.126696587E0,1.036902831E1
1.077491110E-1,3.543418646E-1,4.922478676E0,8.954314232E0,1.022428960E1
1.127539890E-1,4.213795066E-1,5.075707436E0,8.820239067E0,1.018513544E1
1.177893850E-1,4.213795066E-1,5.161899090E0,8.705317497E0,1.012942820E1
1.228247810E-1,3.351882398E-1,5.190629482E0,8.667010307E0,1.010801925E1
1.278296590E-1,2.489969730E-1,5.066130638E0,8.676587105E0,1.005041506E1
1.328650550E-1,3.351882398E-1,5.056553841E0,8.695740700E0,1.006464079E1
1.379004510E-1,4.405331016E-1,5.037400246E0,8.561665535E0,9.943419300E0
1.429358470E-1,6.033388376E-1,4.989516258E0,8.350975990E0,9.746696375E0
1.479407250E-1,6.703764796E-1,5.008669853E0,8.341399193E0,9.752698028E0
1.529761210E-1,6.895300746E-1,4.970362663E0,8.303091049E0,9.701612119E0
1.580115170E-1,5.746083856E-1,4.912901878E0,8.159439087E0,9.541657397E0
1.630469130E-1,5.363011956E-1,4.960785866E0,8.092401505E0,9.507048832E0
1.680517910E-1,4.884171486E-1,5.027823448E0,8.054094315E0,9.507154946E0
1.730871870E-1,4.309563041E-1,5.027823448E0,7.977479935E0,9.439540141E0
1.781225830E-1,3.639186621E-1,5.018246651E0,7.795520782E0,9.278220762E0
1.831274620E-1,3.447650373E-1,4.989516258E0,7.747636795E0,9.221714121E0
1.881628570E-1,3.543418646E-1,5.008669853E0,7.776367188E0,9.256577040E0
1.931982530E-1,5.554547906E-1,4.884171486E0,7.939172745E0,9.337779447E0
1.982336490E-1,6.895300746E-1,4.912901878E0,8.054094315E0,9.459412869E0
2.032385270E-1,9.097966552E-1,4.865017891E0,8.197746277E0,9.575968518E0
2.082739230E-1,1.005564690E0,4.903325081E0,8.178592682E0,9.588698319E0
2.133093190E-1,1.072602391E0,4.893748283E0,8.274360657E0,9.672863714E0
2.183447150E-1,1.235408068E0,4.797980309E0,8.398859978E0,9.751292071E0
2.233495930E-1,1.139639974E0,4.778826714E0,8.580819130E0,9.887690376E0
2.283849890E-1,1.168370485E0,4.826710701E0,8.532935143E0,9.872852067E0
2.334203840E-1,9.768342972E-1,4.501099110E0,8.743624687E0,9.882563995E0
2.384252630E-1,2.681505978E-1,3.964797974E0,9.844957352E0,1.061671856E1
2.434606580E-1,6.224924326E-1,4.539406300E0,8.437167168E0,9.601015373E0
2.484960550E-1,1.666364431E0,4.683058739E0,8.236053467E0,9.619791384E0
2.535314500E-1,2.068590164E0,4.156333923E0,8.226476669E0,9.446115357E0
2.585363290E-1,1.848323703E0,3.505111217E0,8.485051155E0,9.364731617E0
2.635717240E-1,2.595314741E0,2.489969730E0,8.887276649E0,9.587455038E0
2.686071210E-1,4.041412354E0,9.768342972E-1,9.595960617E0,1.045799595E1
2.736119990E-1,4.970362663E0,0.000000000E0,9.308655739E0,1.055251518E1
2.786473950E-1,5.094861031E0,-4.788403213E-2,8.973467827E0,1.031906133E1
2.836827900E-1,3.600879431E0,1.197100878E0,8.896853447E0,9.672299853E0
2.887181870E-1,1.436521053E0,3.323152065E0,8.456320763E0,9.198711498E0
2.937230650E-1,2.873042040E-2,5.219359875E0,8.370129585E0,9.864157958E0
2.987584610E-1,-9.097966552E-1,6.215347767E0,8.523358345E0,1.058800809E1
3.037938560E-1,-2.049436569E0,6.272808552E0,8.638279915E0,1.087051964E1
3.088292530E-1,-3.045424461E0,5.631162167E0,8.542511940E0,1.067516312E1
3.138341310E-1,-3.639186621E0,5.200206280E0,8.657433510E0,1.073484884E1
3.188695270E-1,-3.888183594E0,5.114014626E0,8.829815865E0,1.091955885E1
3.239049220E-1,-4.156333923E0,5.046977043E0,8.724471092E0,1.090245315E1
3.289403190E-1,-4.548983097E0,5.190629482E0,8.705317497E0,1.110938497E1
3.339451970E-1,-4.654327869E0,5.286397457E0,8.590395927E0,1.110872037E1
3.389805930E-1,-4.663905144E0,5.334281445E0,8.571242332E0,1.112082573E1
3.440159880E-1,-4.395754337E0,5.324704647E0,8.705317497E0,1.111115154E1
3.490208670E-1,-4.060565948E0,5.104437828E0,8.408436775E0,1.064167705E1
3.540562630E-1,-3.581725836E0,5.008669853E0,9.050082207E0,1.094621038E1
3.590916590E-1,-3.131615877E0,4.970362663E0,9.672574997E0,1.131681183E1
3.641270540E-1,-2.671929121E0,4.865017891E0,1.012268448E1,1.154453747E1
3.691319330E-1,-2.212242365E0,4.884171486E0,1.018014526E1,1.150584656E1
3.741673290E-1,-1.647210717E0,4.941632271E0,1.013226128E1,1.139279383E1
3.792027250E-1,-1.388636947E0,4.970362663E0,1.010353088E1,1.134522604E1
3.842381200E-1,-1.331176162E0,5.037400246E0,9.911994934E0,1.119799423E1
3.892429990E-1,-1.589749932E0,4.692635536E0,9.739612579E0,1.092740529E1
3.942783950E-1,-1.723825216E0,4.338293552E0,9.758766174E0,1.081785014E1
3.993137910E-1,-1.446097851E0,4.232948780E0,1.014183807E1,1.108449069E1
4.043491860E-1,-5.171475410E-1,5.382165432E0,1.262223148E1,1.373156488E1
4.093540650E-1,-1.493981838E0,4.146757126E0,1.231577396E1,1.308074404E1
4.143894610E-1,-2.346317768E0,3.198653460E0,1.206677628E1,1.270211324E1
4.194248560E-1,-2.767697096E0,2.643198729E0,1.169328117E1,1.230363651E1
4.244602520E-1,-3.035847664E0,2.432508945E0,1.134851646E1,1.199676193E1
4.294651300E-1,-3.859453201E0,2.365471363E0,1.192312431E1,1.275349862E1
4.345005270E-1,-4.635174274E0,2.537853718E0,1.159751320E1,1.274471869E1
4.395359220E-1,-5.181052685E0,2.528276920E0,1.158793640E1,1.294278800E1
4.445713180E-1,-5.755661011E0,2.595314741E0,1.162624359E1,1.322999744E1
4.495761960E-1,-6.071695328E0,2.949656487E0,1.193270111E1,1.370967955E1
4.546115930E-1,-6.004657745E0,2.662352324E0,1.176031876E1,1.347030556E1
4.596469880E-1,-5.889736176E0,2.777273893E0,1.152089882E1,1.323379583E1
4.646823840E-1,-5.525817394E0,2.825158119E0,1.093671322E1,1.257489055E1
4.696872620E-1,-5.286397457E0,2.748543501E0,1.057279491E1,1.213608181E1
4.747226580E-1,-5.209783077E0,2.834734917E0,1.024718285E1,1.183986140E1
4.797580540E-1,-5.190629482E0,2.901772499E0,1.024718285E1,1.184768646E1
4.847934500E-1,-5.152322292E0,3.045424461E0,1.059194851E1,1.216595283E1
4.897983280E-1,-4.922478676E0,3.055001259E0,1.098459721E1,1.241874409E1
4.948337240E-1,-4.481945515E0,2.959233284E0,1.159751320E1,1.278073588E1
4.998691200E-1,-3.964797974E0,2.853888512E0,1.247857952E1,1.340071824E1
5.048739990E-1,-3.409343243E0,2.748543501E0,1.343626022E1,1.413192137E1
5.099093940E-1,-2.901772499E0,2.518700123E0,1.433648014E1,1.484246599E1
5.149447900E-1,-2.480392933E0,2.413355350E0,1.518881512E1,1.557808518E1
5.199801860E-1,-2.308010340E0,2.327163935E0,1.594538307E1,1.627875441E1
5.249850650E-1,-1.886630893E0,2.422932148E0,1.663491249E1,1.691597736E1
5.300204600E-1,-1.532289028E0,2.604891539E0,1.699883270E1,1.726538974E1
5.350558560E-1,-1.532289028E0,2.518700123E0,1.697010231E1,1.722428902E1
5.400912520E-1,-1.532289028E0,2.489969730E0,1.687433434E1,1.712574139E1
5.450961310E-1,-1.197100878E0,2.691082716E0,1.646253014E1,1.672393121E1
5.501315260E-1,-6.512228847E-1,3.160346270E0,1.601242065E1,1.633430424E1
5.551669220E-1,1.340752989E-1,3.409343243E0,1.525585365E1,1.563274346E1
5.602023180E-1,6.224924326E-1,3.754108191E0,1.451843929E1,1.500886087E1
5.652071970E-1,8.906430602E-1,3.916913986E0,1.363737297E1,1.421665930E1
5.702425920E-1,9.768342972E-1,4.098873138E0,1.281376743E1,1.348879543E1
5.752779880E-1,9.193734527E-1,4.185064793E0,1.192312431E1,1.266968462E1
5.803133840E-1,7.852981687E-1,4.328716755E0,1.108994198E1,1.193068712E1
5.853182630E-1,4.788403511E-1,4.338293552E0,1.062067890E1,1.148254760E1
5.903536580E-1,5.267243981E-1,4.395754337E0,1.024718285E1,1.116265430E1
5.953890530E-1,6.129156351E-1,4.232948780E0,9.749189377E0,1.064613613E1
6.003939320E-1,1.216254473E0,4.022258759E0,9.375694275E0,1.027431183E1
6.054293280E-1,1.781286120E0,3.821146011E0,9.184157372E0,1.010558676E1
6.104647240E-1,2.365471363E0,3.629609823E0,9.078812599E0,1.005954077E1
6.155001190E-1,2.710236311E0,3.476380825E0,8.868123055E0,9.903242449E0
6.205049980E-1,2.930502892E0,3.399766445E0,8.686163902E0,9.777305478E0
6.255403940E-1,2.987963676E0,3.323152065E0,8.456320763E0,9.564550560E0
6.305757900E-1,2.863465309E0,3.275267839E0,8.092401505E0,9.187696942E0
6.356111850E-1,2.710236311E0,3.399766445E0,7.603984833E0,8.759245292E0
6.406160640E-1,2.633621931E0,3.390189648E0,7.230489254E0,8.408883706E0
6.456514600E-1,2.489969730E0,3.457227230E0,6.722918510E0,7.959271492E0
6.506868560E-1,2.547430515E0,3.447650433E0,6.167463779E0,7.510879123E0
6.557222510E-1,2.671929121E0,3.505111217E0,5.736507416E0,7.234122421E0
6.607271300E-1,2.853888512E0,3.495534420E0,5.401319027E0,7.038301482E0
6.657625260E-1,3.016694069E0,3.438073635E0,5.142745018E0,6.882486451E0
6.707979220E-1,3.246537447E0,3.399766445E0,4.826710701E0,6.737622241E0
6.758333170E-1,3.485957623E0,3.323152065E0,4.481945515E0,6.578987444E0
6.808381960E-1,3.696647406E0,3.112462282E0,4.280832767E0,6.455861885E0
6.858735920E-1,3.773261786E0,2.959233284E0,4.070142746E0,6.289724009E0
6.909089880E-1,3.830722809E0,2.604891539E0,3.859453201E0,6.029533662E0
6.959443830E-1,3.840299606E0,2.355894566E0,3.715801001E0,5.839975800E0
7.009492620E-1,3.916913986E0,1.924938202E0,3.687070608E0,5.713325820E0
7.059846580E-1,4.012681961E0,1.561019540E0,3.533841610E0,5.570137794E0
7.110200540E-1,4.070142746E0,1.216254473E0,3.438073635E0,5.464950799E0
7.160554490E-1,4.223371983E0,8.427590132E-1,3.361459255E0,5.463197048E0
7.210603280E-1,4.194641590E0,7.086837292E-1,3.399766445E0,5.445701294E0
7.260957240E-1,4.041412354E0,4.596867263E-1,3.687070608E0,5.489883001E0
7.311311200E-1,3.964797974E0,3.064578176E-1,3.993528366E0,5.635761544E0
7.361359980E-1,3.792415380E0,3.447650373E-1,4.481945515E0,5.881250968E0
7.411713940E-1,3.562572241E0,2.777273953E-1,5.190629482E0,6.301721027E0
7.462067890E-1,3.428496838E0,2.681505978E-1,5.880159378E0,6.811957840E0
7.512421860E-1,3.208230257E0,2.873041928E-1,6.579266071E0,7.325436992E0
7.562470640E-1,3.074155092E0,2.585737705E-1,7.096413612E0,7.737982688E0
7.612824600E-1,2.825158119E0,2.202665508E-1,7.517793179E0,8.034130322E0
7.663178550E-1,2.614468336E0,1.149216816E-1,8.044517517E0,8.459486613E0
7.713532520E-1,2.327163935E0,4.788403213E-2,8.389283180E0,8.706207965E0
7.763581300E-1,2.068590164E0,2.873042040E-2,8.609549522E0,8.854616518E0
7.813935260E-1,1.675941229E0,1.723825186E-1,8.973467827E0,9.130258462E0
7.864289210E-1,1.436521053E0,4.692635238E-1,9.107542992E0,9.232071292E0
7.914643170E-1,1.359906554E0,1.043871999E0,9.165003777E0,9.323964222E0
7.964691960E-1,1.628057122E0,1.752555609E0,8.810662270E0,9.129610659E0
8.015045910E-1,2.116474390E0,2.959233284E0,8.868123055E0,9.585412458E0
8.065399870E-1,2.777273893E0,4.280832767E0,8.303091049E0,9.745773465E0
8.115753830E-1,4.012681961E0,5.410895824E0,7.939172745E0,1.041200624E1
8.165802620E-1,5.334281445E0,6.483498096E0,7.441178799E0,1.121879887E1
8.216156570E-1,6.560112476E0,7.000645638E0,6.703764915E0,1.170404114E1
8.266510530E-1,6.627150536E0,7.010222435E0,5.746084213E0,1.122852736E1
8.316864490E-1,5.430049419E0,6.895300865E0,4.855441093E0,1.003025019E1
8.366913280E-1,4.443638325E0,7.067683220E0,4.252102375E0,9.369015010E0
8.417267230E-1,3.658340216E0,7.479485989E0,4.031835556E0,9.251046521E0
8.467621190E-1,3.265691042E0,7.441178799E0,4.347870350E0,9.216282139E0
8.517975150E-1,3.150769472E0,7.316680431E0,5.181052685E0,9.502866290E0
8.568023940E-1,3.227383852E0,6.655880928E0,6.493074894E0,9.842600217E0
8.618377890E-1,3.438073635E0,5.353435040E0,8.370129585E0,1.051373798E1
8.668731850E-1,3.380612850E0,3.983951569E0,1.058237171E1,1.180199154E1
8.719085810E-1,3.189076662E0,2.719813108E0,1.266053867E1,1.333629757E1
8.769134600E-1,2.758120298E0,1.915361404E0,1.467166805E1,1.505103586E1
8.819488550E-1,2.193088770E0,1.331176162E0,1.618480301E1,1.638687026E1
8.869842510E-1,1.522712231E0,9.002198577E-1,1.727655983E1,1.736688135E1
8.919891290E-1,8.427590132E-1,7.182605267E-1,1.797566605E1,1.800973933E1
8.970245260E-1,2.298433632E-1,6.703764796E-1,1.849281311E1,1.850638726E1
9.020599210E-1,-1.915361285E-1,6.033388376E-1,1.894292450E1,1.895349816E1
9.070953170E-1,-6.512228847E-1,5.841852427E-1,1.932599640E1,1.934578767E1
9.121001950E-1,-1.053448796E0,5.841852427E-1,1.954626274E1,1.958334532E1
9.171355920E-1,-1.905784607E0,8.714894056E-1,1.917276764E1,1.928695227E1
9.221709870E-1,-2.394201756E0,1.197100878E0,1.855985069E1,1.875188818E1
9.272063830E-1,-2.968810081E0,9.864110947E-1,1.801397324E1,1.828360117E1
9.322112610E-1,-2.959233284E0,1.158793569E0,1.778413010E1,1.806585585E1
9.372466580E-1,-2.681505919E0,1.714248419E0,1.741063499E1,1.769913367E1
9.422820530E-1,-2.260126352E0,2.240972757E0,1.708502388E1,1.737895771E1
9.473174490E-1,-2.288856745E0,2.547430515E0,1.655829811E1,1.690874045E1
9.523223270E-1,-2.336740971E0,2.997540474E0,1.573469353E1,1.618722298E1
9.573577240E-1,-2.499546528E0,3.591302633E0,1.462378407E1,1.526434564E1
9.623931190E-1,-2.518700123E0,3.715801001E0,1.331176186E1,1.404827502E1
9.674285140E-1,-2.834734917E0,3.533841610E0,1.186566353E1,1.270109167E1
9.724333930E-1,-3.361459255E0,3.275267839E0,1.044829655E1,1.145398134E1
9.774687890E-1,-3.811569214E0,3.112462282E0,8.954314232E0,1.021739814E1
9.825041850E-1,-4.156333923E0,2.624045134E0,7.623138428E0,9.070444533E0
9.875395800E-1,-4.683058739E0,1.800439715E0,7.402871609E0,8.942881548E0
9.925444590E-1,-4.424484730E0,1.235408068E0,6.244078159E0,7.751826254E0
9.975798550E-1,-4.807557106E0,9.864110947E-1,5.650316238E0,7.484095521E0
1.002615251E0,-5.219359875E0,1.235408068E0,4.807557106E0,7.202815833E0
1.007650646E0,-5.420472622E0,1.656787634E0,4.280832767E0,7.102956982E0
1.012686043E0,-5.947196960E0,2.173935175E0,3.648763418E0,7.308120163E0
1.017690920E0,-6.464344501E0,2.681505919E0,3.495534420E0,7.822850165E0
1.022726317E0,-6.732495308E0,3.007117271E0,3.648763418E0,8.226950944E0
1.027761712E0,-7.010222435E0,3.198653460E0,3.830722809E0,8.605175174E0
1.032797109E0,-6.837840080E0,3.265691042E0,4.003105164E0,8.570043518E0
1.037801986E0,-6.732495308E0,3.102885485E0,4.079719543E0,8.461589860E0
1.042837383E0,-6.435614109E0,2.700659513E0,3.696647406E0,7.897841022E0
1.047872778E0,-5.899312973E0,2.231395960E0,3.552995205E0,7.239115720E0
1.052908175E0,-5.372588634E0,1.762132406E0,3.447650433E0,6.622394790E0
1.057913052E0,-4.807557106E0,1.493981838E0,3.332728863E0,6.037521738E0
1.062948449E0,-4.616020679E0,1.273715258E0,3.217807055E0,5.769252960E0
1.067983844E0,-4.510675907E0,1.177947283E0,3.246537447E0,5.681000117E0
1.073019241E0,-4.510675907E0,1.139639974E0,3.495534420E0,5.819255733E0
1.078024118E0,-4.453215122E0,1.034295082E0,3.936067581E0,6.032704140E0
1.083059515E0,-4.577713490E0,1.005564690E0,4.434061527E0,6.451939458E0
1.088094910E0,-4.759673119E0,9.672574997E-1,4.932055473E0,6.922083968E0
1.093099789E0,-4.912901878E0,1.158793569E0,5.525817394E0,7.484254490E0
1.098135184E0,-5.276820660E0,1.283292055E0,6.320692539E0,8.333236403E0
1.103170581E0,-5.525817394E0,1.570596337E0,6.770802498E0,8.879481809E0
1.108205976E0,-4.903325081E0,2.288856745E0,7.316680431E0,9.100289808E0
1.113241373E0,-3.840299606E0,3.447650433E0,7.613561630E0,9.197853840E0
1.118246250E0,-4.884171486E0,3.524264812E0,8.303091049E0,1.025752868E1
1.123281647E0,-6.215347767E0,3.476380825E0,8.992621422E0,1.147096385E1
1.128317042E0,-7.776367188E0,2.959233284E0,9.548076630E0,1.266470353E1
1.133352439E0,-9.107542992E0,2.097320795E0,9.854534149E0,1.358152926E1
1.138357316E0,-9.787496567E0,9.097966552E-1,9.931148529E0,1.397320758E1
1.143392712E0,-9.701305389E0,-4.405331016E-1,1.004607010E1,1.397257743E1
1.148428108E0,-9.816226959E0,-1.800439715E0,1.028549004E1,1.433147585E1
1.153463504E0,-1.025675964E1,-2.844311714E0,1.031422138E1,1.482141661E1
1.158468382E0,-1.074517727E1,-3.198653460E0,1.030464458E1,1.522747249E1
1.163503778E0,-1.148259163E1,-2.825158119E0,1.025675964E1,1.565351549E1
1.168539174E0,-1.199973869E1,-1.982398987E0,1.034295177E1,1.596559695E1
1.173574570E0,-1.226788998E1,-6.703764796E-1,1.043871975E1,1.612195395E1
1.178579448E0,-1.169328117E1,5.841852427E-1,1.074517727E1,1.589128477E1
1.183614844E0,-1.020887566E1,1.522712231E0,1.128147888E1,1.529089796E1
1.188650240E0,-8.226476669E0,2.173935175E0,1.194227791E1,1.466352325E1
1.193685636E0,-5.918466568E0,2.576161146E0,1.287122822E1,1.439907527E1
1.198690514E0,-3.801992416E0,2.949656487E0,1.361821938E1,1.444339014E1
1.203725910E0,-2.097320795E0,3.629609823E0,1.451843929E1,1.511151553E1
1.208761306E0,-1.426944256E0,4.683058739E0,1.560061836E1,1.635073400E1
1.213796702E0,-1.225831270E0,5.267243862E0,1.681687355E1,1.766504334E1
1.218801580E0,-1.254561663E0,5.276820660E0,1.845450592E1,1.923506044E1
1.223836976E0,-1.273715258E0,4.290409565E0,2.003467941E1,2.052847642E1
1.228872372E0,-1.101332784E0,2.509123325E0,2.109770584E1,2.127491071E1
1.233907768E0,-1.685518026E0,6.799532771E-1,2.176808167E1,2.184382491E1
1.238912646E0,-2.853888512E0,-7.374141216E-1,2.198834801E1,2.218503792E1
1.243948042E0,-4.309563160E0,-1.359906554E0,2.183511925E1,2.229784996E1
1.248983438E0,-5.315127850E0,-1.675941229E0,2.141374016E1,2.212707913E1
1.254018833E0,-5.554547787E0,-1.762132406E0,2.099236107E1,2.178617302E1
1.259023712E0,-4.893748283E0,-2.097320795E0,2.040817451E1,2.109125681E1
1.264059108E0,-3.380612850E0,-2.537853718E0,1.978568268E1,2.023221401E1
1.269094504E0,-1.331176162E0,-2.853888512E0,1.934514999E1,1.959978413E1
1.274129899E0,7.565677166E-1,-2.959233284E0,1.916319084E1,1.940508540E1
1.279165296E0,2.624045134E0,-2.777273893E0,1.911530685E1,1.949343016E1
1.284170174E0,4.137180328E0,-2.384624958E0,1.903869247E1,1.962841075E1
1.289205570E0,5.248090267E0,-1.790862918E0,1.879927254E1,1.960005840E1
1.294240965E0,6.004657745E0,-1.292868972E0,1.836831474E1,1.936807712E1
1.299245844E0,6.550535679E0,-9.097966552E-1,1.786074448E1,1.904582476E1
1.304281240E0,7.000645638E0,-6.799532771E-1,1.720952225E1,1.859136982E1
1.309316636E0,7.546523571E0,-5.650315881E-1,1.644337654E1,1.810121296E1
1.314352031E0,8.054094315E0,-4.405331016E-1,1.561977196E1,1.757952732E1
1.319387427E0,8.331821442E0,-1.244984865E-1,1.487278080E1,1.704800156E1
1.324392306E0,8.418013573E0,2.202665508E-1,1.396298409E1,1.630571662E1
1.329427701E0,8.408436775E0,5.937620401E-1,1.309149456E1,1.557053603E1
1.334463097E0,8.159439087E0,1.005564690E0,1.209550667E1,1.462494062E1
1.339498493E0,7.958326340E0,1.321599364E0,1.101332760E1,1.365192176E1
1.344503372E0,7.489062786E0,1.618480325E0,9.873687744E0,1.249780979E1
1.349538767E0,6.866570473E0,1.848323703E0,8.599972725E0,1.115910487E1
1.354574163E0,6.311115742E0,1.953668594E0,7.536946774E0,1.002260293E1
1.359609559E0,5.669469833E0,1.991975784E0,6.445190907E0,8.811999860E0
1.364614438E0,5.027823448E0,1.944091797E0,5.525817394E0,7.719660576E0
1.369649833E0,4.740519524E0,2.011129379E0,4.692635536E0,6.966921487E0
1.374685229E0,4.817133904E0,2.087743998E0,3.773261786E0,6.465366080E0
1.379720625E0,5.027823448E0,2.183511972E0,3.102885485E0,6.298780159E0
1.384725504E0,5.305551052E0,2.288856745E0,2.489969730E0,6.291874635E0
1.389760899E0,5.554547787E0,2.193088770E0,2.097320795E0,6.329407080E0
1.394796295E0,6.253654957E0,2.451662540E0,1.810016513E0,6.956652162E0
1.399831691E0,6.847416878E0,2.777273893E0,1.675941229E0,7.576882418E0
1.404836570E0,7.230489254E0,2.920926094E0,1.398213744E0,7.922549197E0
1.409871965E0,7.565677166E0,2.834734917E0,1.110909581E0,8.155324220E0
1.414907361E0,7.795520782E0,2.365471363E0,8.236053586E-1,8.188035468E0
1.419942757E0,7.441178799E0,1.982398987E0,8.523358107E-1,7.747743155E0
1.424947636E0,6.703764915E0,1.551442742E0,9.768342972E-1,6.949938408E0
1.429983031E0,5.956773758E0,1.015141487E0,1.503558636E0,6.226905685E0
1.435018427E0,5.248090267E0,6.129156351E-1,2.001552582E0,5.650161924E0
1.440053823E0,4.817133904E0,3.064578176E-1,2.691082716E0,5.526356994E0
1.445058702E0,4.587290287E0,1.053448766E-1,3.332728863E0,5.671103190E0
1.450094097E0,4.548983097E0,0.000000000E0,3.993528366E0,6.053223606E0
1.455129493E0,4.616020679E0,5.746084079E-2,4.845864296E0,6.692783385E0
1.460164889E0,4.740519524E0,9.576806426E-2,5.525817394E0,7.281233052E0
1.465169768E0,4.845864296E0,1.340752989E-1,6.215347767E0,7.882317224E0
1.470205163E0,4.884171486E0,2.202665508E-1,6.799532890E0,8.374801250E0
1.475240559E0,4.788403511E0,2.968810201E-1,7.422025204E0,8.837613063E0
1.480275955E0,4.759673119E0,3.639186621E-1,7.996633530E0,9.313059261E0
1.485280834E0,4.644751072E0,6.895300746E-1,8.350975990E0,9.580603542E0
1.490316229E0,4.424484730E0,1.082179189E0,8.619126320E0,9.748667367E0
1.495351624E0,4.175487995E0,1.589749932E0,8.820239067E0,9.887295993E0
1.500387021E0,4.127603531E0,2.126051188E0,8.935160637E0,1.006947368E1
1.505391899E0,4.491522312E0,2.777273893E0,8.963891029E0,1.040376688E1
1.510427295E0,4.912901878E0,3.428496838E0,8.609549522E0,1.048882922E1
1.515462690E0,5.410895824E0,4.309563160E0,8.178592682E0,1.071165284E1
1.520498087E0,6.042964935E0,5.037400246E0,7.536946774E0,1.089487922E1
1.525502964E0,6.435614109E0,5.554547787E0,6.866570473E0,1.092794217E1
1.530538361E0,6.703764915E0,5.870582581E0,6.311115742E0,1.091944988E1
1.535573756E0,6.512228489E0,5.908889771E0,6.062118530E0,1.068051400E1
1.540609153E0,5.870582581E0,5.928043365E0,6.100425720E0,1.033540671E1
1.545644548E0,5.353435040E0,5.975927353E0,6.579266071E0,1.037582365E1
1.550649427E0,5.679046631E0,5.937620163E0,7.556100368E0,1.116250674E1
1.555684822E0,6.895300865E0,5.793968201E0,8.925583839E0,1.267995617E1
1.560720219E0,8.169015884E0,5.219359875E0,1.040041256E1,1.421770444E1
1.565755614E0,9.222464561E0,4.309563160E0,1.200931549E1,1.574324762E1
1.570760493E0,9.337387085E0,3.141192675E0,1.383848572E1,1.698698254E1
1.575795888E0,8.599972725E0,1.972822189E0,1.579215431E1,1.808987828E1
1.580831285E0,7.067683220E0,1.216254473E0,1.768836212E1,1.908689539E1
1.585866680E0,5.133168221E0,9.289502501E-1,1.940261078E1,2.009163183E1
1.590871559E0,3.390189648E0,1.072602391E0,2.062844276E1,2.093266616E1
1.595906954E0,1.972822189E0,1.331176162E0,2.140416336E1,2.153606897E1
1.600942351E0,7.374141216E-1,1.551442742E0,2.167231369E1,2.174028369E1
1.605977746E0,8.619125932E-2,1.532289028E0,2.149035454E1,2.154508475E1
1.610982625E0,-4.884171486E-1,1.465251446E0,2.102109146E1,2.107775603E1
1.616018020E0,-1.015141487E0,1.110909581E0,2.029325294E1,2.034897411E1
1.621053417E0,-1.781286120E0,8.044517636E-1,1.958456993E1,1.968185719E1
1.626088812E0,-2.365471363E0,6.799532771E-1,1.867477417E1,1.883626772E1
1.631093691E0,-2.892195702E0,6.703764796E-1,1.770751572E1,1.795467386E1
1.636129086E0,-3.399766445E0,7.757213712E-1,1.664448929E1,1.700585720E1
1.641164483E0,-3.629609823E0,1.101332784E0,1.538992882E1,1.585045458E1
1.646199878E0,-3.667917013E0,1.379060149E0,1.421198082E1,1.474231396E1
1.651204757E0,-3.629609823E0,1.551442742E0,1.308191776E1,1.366446539E1
1.656240152E0,-3.476380825E0,1.829170108E0,1.185608673E1,1.248991111E1
1.661275549E0,-3.428496838E0,1.934514999E0,1.078348446E1,1.147956776E1
1.666310944E0,-3.409343243E0,2.260126352E0,9.768342972E0,1.059019910E1
1.671315823E0,-3.572149038E0,2.643198729E0,8.868123055E0,9.919191236E0
1.676351218E0,-3.792415380E0,3.035847664E0,8.101978302E0,9.446736890E0
1.681386614E0,-4.165910721E0,3.371036053E0,7.441178799E0,9.170051151E0
1.686422010E0,-4.577713490E0,3.572149038E0,6.761225700E0,8.912344389E0
1.691426888E0,-4.912901878E0,3.744531393E0,6.320692539E0,8.837945146E0
1.696462284E0,-5.238513470E0,3.763684988E0,5.880159378E0,8.728322999E0
1.701497680E0,-5.688623428E0,3.639186621E0,5.583278179E0,8.762254904E0
1.706533076E0,-6.205770969E0,3.457227230E0,5.506663799E0,8.988178884E0
1.711537954E0,-6.732495308E0,3.466804028E0,5.410895824E0,9.307148697E0
1.716573350E0,-7.249642849E0,3.399766445E0,5.391742229E0,9.653321583E0
1.721608746E0,-7.699752808E0,3.342305660E0,5.410895824E0,9.986740912E0
1.726644142E0,-8.111555099E0,3.447650433E0,5.133168221E0,1.019965860E1
1.731679537E0,-8.398859978E0,3.495534420E0,4.769249916E0,1.027157995E1
1.736684416E0,-8.667010307E0,3.361459255E0,4.204218388E0,1.020254518E1
1.741719812E0,-8.686163902E0,3.361459255E0,3.629609823E0,9.996145214E0
1.746755208E0,-8.724471092E0,3.323152065E0,2.844311714E0,9.759602687E0
1.751760086E0,-8.638279915E0,3.428496838E0,2.231395960E0,9.557907636E0
1.756795482E0,-8.609549522E0,3.485957623E0,1.685518026E0,9.440191446E0
1.761830877E0,-8.916007042E0,3.495534420E0,1.455674648E0,9.686739964E0
1.766866274E0,-8.542511940E0,3.380612850E0,1.321599364E0,9.281685104E0
1.771901669E0,-7.996633530E0,3.169923067E0,1.283292055E0,8.697206365E0
1.776906548E0,-7.747636795E0,2.920926094E0,1.283292055E0,8.378813977E0
1.781941943E0,-7.575253963E0,2.863465309E0,1.321599364E0,8.205518330E0
1.786977340E0,-7.613561630E0,2.719813108E0,1.666364431E0,8.254724372E0
1.792012735E0,-7.718906403E0,2.576161146E0,2.097320795E0,8.403384843E0
1.797017614E0,-7.881711960E0,2.470816135E0,2.671929121E0,8.681331754E0
1.802053009E0,-7.910442352E0,2.260126352E0,3.246537447E0,8.844392276E0
1.807088406E0,-7.795520782E0,1.944091797E0,3.744531393E0,8.864037034E0
1.812123801E0,-7.728483200E0,1.532289028E0,4.031835556E0,8.850596601E0
1.817128680E0,-7.431602001E0,1.197100878E0,4.194641590E0,8.617237196E0
1.822164075E0,-6.856993675E0,1.082179189E0,4.137180328E0,8.081196392E0
1.827199472E0,-6.023811340E0,1.187524080E0,4.050989151E0,7.355748066E0
1.832234867E0,-5.200206280E0,1.695094824E0,3.888183594E0,6.710697689E0
1.837239746E0,-4.663905144E0,2.815581083E0,3.648763418E0,6.556903424E0
1.842275141E0,-4.424484730E0,4.529829502E0,3.447650433E0,7.209834530E0
1.847310538E0,-4.137180328E0,6.301538944E0,3.457227230E0,8.293254744E0
1.852345933E0,-3.869029999E0,7.766790390E0,3.390189648E0,9.315890292E0
1.857350811E0,-3.552995205E0,8.303091049E0,3.418920040E0,9.656816770E0
1.862386207E0,-3.409343243E0,7.709329605E0,4.022258759E0,9.340018727E0
1.867421603E0,-3.313575268E0,6.579266071E0,5.075707436E0,8.945911304E0
1.872456999E0,-3.514688015E0,5.707777023E0,6.952761650E0,9.657776398E0
1.877461877E0,-3.964797974E0,5.334281445E0,9.710882187E0,1.176755771E1
1.882497273E0,-4.654327869E0,5.382165432E0,1.356075859E1,1.531419754E1
1.887532669E0,-4.922478676E0,5.276820660E0,1.787989807E1,1.928124445E1
1.892568065E0,-4.453215122E0,4.434061527E0,2.254380226E1,2.340331273E1
1.897572943E0,-3.246537447E0,2.595314741E0,2.723643875E1,2.755175602E1
1.902608339E0,-2.173935175E0,7.182605267E-1,3.130658150E1,3.139018855E1
1.907643735E0,-1.628057122E0,-7.852981687E-1,3.443819809E1,3.448560208E1
1.912679131E0,-1.302445769E0,-1.685518026E0,3.624821472E1,3.631074781E1
1.917684009E0,-9.768342972E-1,-1.944091797E0,3.675578308E1,3.682012070E1
1.922719405E0,-6.512228847E-1,-1.599326730E0,3.632482910E1,3.636585138E1
1.927754801E0,1.628057212E-1,-7.469909191E-1,3.475423050E1,3.476263855E1
1.932790197E0,1.388636947E0,1.149216816E-1,3.248452759E1,3.251439761E1
1.937795075E0,2.662352324E0,4.979939461E-1,2.976471519E1,2.988769627E1
1.942830471E0,3.945644379E0,7.278373241E-1,2.683421326E1,2.713250556E1
1.947865867E0,4.625597477E0,8.523358107E-1,2.398990059E1,2.444663491E1
1.952901263E0,5.037400246E0,1.244984865E0,2.127008820E1,2.189388135E1
1.957906141E0,5.363011837E0,1.532289028E0,1.891419411E1,1.971944584E1
1.962941537E0,5.698200226E0,2.020706177E0,1.685518074E1,1.790669866E1
1.967976933E0,6.291962147E0,2.308010340E0,1.493981838E1,1.637418311E1
1.973012329E0,6.904877663E0,2.413355350E0,1.333091545E1,1.520575307E1
1.978047725E0,7.469909191E0,2.595314741E0,1.195185471E1,1.433115602E1
1.983052603E0,8.015787125E0,2.719813108E0,1.063983250E1,1.359618557E1
1.988087999E0,8.236053467E0,2.863465309E0,9.423578262E0,1.283884097E1
1.993123395E0,8.226476669E0,2.968810081E0,8.350975990E0,1.209245846E1
1.998158790E0,7.958326340E0,3.112462282E0,7.393294811E0,1.129969857E1
2.003163669E0,7.498639584E0,3.179499865E0,6.540958881E0,1.044619347E1
2.008199065E0,6.943184853E0,3.198653460E0,5.841852188E0,9.621145298E0
2.013234461E0,6.521805286E0,3.189076662E0,5.171475887E0,8.913378540E0
2.018269856E0,6.129156113E0,2.987963676E0,4.654327869E0,8.255740397E0
2.023274735E0,5.688623428E0,2.853888512E0,4.060565948E0,7.549391497E0
2.028310131E0,5.449203014E0,2.710236311E0,3.505111217E0,7.023175849E0
2.033345526E0,5.075707436E0,2.470816135E0,2.892195702E0,6.342912133E0
2.038380922E0,4.893748283E0,2.355894566E0,2.499546528E0,5.978858111E0
2.043385800E0,4.683058739E0,2.279279947E0,2.106897593E0,5.618289214E0
2.048421197E0,4.242525578E0,2.231395960E0,1.742978811E0,5.100600586E0
2.053456592E0,3.974374771E0,2.365471363E0,1.264138460E0,4.794700787E0
2.058491988E0,3.629609823E0,2.403778553E0,9.481038451E-1,4.455459539E0
2.063496866E0,3.399766445E0,2.336740971E0,4.692635238E-1,4.151984887E0
2.068532263E0,3.208230257E0,2.327163935E0,-1.915361360E-2,3.963432884E0
2.073567658E0,2.997540474E0,2.269703150E0,-5.458779931E-1,3.799313631E0
2.078603054E0,2.834734917E0,2.145204782E0,-9.385270476E-1,3.676745657E0
2.083607932E0,2.566584110E0,2.049436569E0,-1.388636947E0,3.565930007E0
2.088643329E0,2.202665567E0,1.915361404E0,-1.628057122E0,3.342291864E0
2.093678724E0,1.934514999E0,1.752555609E0,-1.675941229E0,3.102028118E0
2.098714120E0,1.666364431E0,1.618480325E0,-1.350329757E0,2.686938673E0
2.103749516E0,1.493981838E0,1.379060149E0,-8.236053586E-1,2.193653212E0
2.108754395E0,1.561019540E0,1.082179189E0,-1.915361360E-2,1.899542224E0
2.113789790E0,1.647210717E0,7.948749661E-1,8.427590132E-1,2.013795450E0
2.118825186E0,1.972822189E0,7.182605267E-1,1.810016513E0,2.772018281E0
2.123860582E0,2.394201756E0,6.799532771E-1,2.691082716E0,3.665578357E0
2.128865461E0,2.825158119E0,6.416460276E-1,3.552995205E0,4.584430493E0
2.133900856E0,3.179499865E0,7.182605267E-1,4.357447147E0,5.441733475E0
2.138936252E0,3.342305660E0,7.757213712E-1,5.066130638E0,6.118695156E0
2.143971648E0,3.179499865E0,1.130063176E0,5.698200226E0,6.622367249E0
2.148976527E0,2.920926094E0,1.618480325E0,6.033388138E0,6.895872695E0
2.154011922E0,2.729389906E0,2.298433542E0,6.177040577E0,7.133596309E0
2.159047318E0,2.652775526E0,2.978386879E0,6.358999729E0,7.506322931E0
2.164082714E0,3.112462282E0,3.763684988E0,6.148310184E0,7.852035677E0
2.169118110E0,3.620033026E0,4.501099110E0,6.071695328E0,8.380335104E0
2.174122988E0,4.357447147E0,5.295974255E0,5.659893036E0,8.892079516E0
2.179158384E0,4.769249916E0,5.870582581E0,5.123591423E0,9.135681347E0
2.184193780E0,5.018246651E0,6.205770969E0,4.778826714E0,9.302235082E0
2.189229176E0,4.922478676E0,6.224924564E0,4.711789131E0,9.229379121E0
2.194234054E0,4.319139957E0,6.004657745E0,4.912901878E0,8.879610885E0
2.199269450E0,3.600879431E0,5.918466568E0,5.094861031E0,8.599545808E0
2.204304846E0,3.591302633E0,6.378153324E0,5.276820660E0,9.023476642E0
2.209340241E0,4.510675907E0,7.058106422E0,5.822698593E0,1.020131768E1
2.214345120E0,6.033388138E0,7.785943985E0,6.531382084E0,1.181869909E1
2.219380515E0,7.795520782E0,7.728483200E0,7.785943985E0,1.345810241E1
2.224415912E0,9.107542992E0,6.885724068E0,9.433155060E0,1.481029877E1
2.229451307E0,1.005564690E1,5.746084213E0,1.102290440E1,1.598868161E1
2.234486703E0,1.020887566E1,4.989516258E0,1.296699619E1,1.724121240E1
2.239491581E0,9.959878922E0,4.376600742E0,1.526543045E1,1.874532446E1
2.244526978E0,9.318233490E0,4.127603531E0,1.751597977E1,2.026514578E1
2.249562373E0,8.341399193E0,4.012681961E0,1.944091797E1,2.153206559E1
2.254597769E0,7.038952827E0,4.108449936E0,2.065717316E1,2.220686877E1
2.259602647E0,5.286397457E0,4.376600742E0,2.080082512E1,2.190376584E1
2.264638044E0,4.232948780E0,4.328716755E0,2.064759636E1,2.151694401E1
2.269673439E0,3.533841610E0,3.993528366E0,1.997721863E1,2.067669145E1
2.274708835E0,2.882618904E0,3.552995205E0,1.926853561E1,1.980428568E1
2.279744231E0,1.991975784E0,3.361459255E0,1.829170036E1,1.870437591E1
2.284749110E0,1.197100878E0,3.323152065E0,1.715206146E1,1.751198454E1
2.289784505E0,3.351882398E-1,3.428496838E0,1.584961510E1,1.621965599E1
2.294819901E0,-2.202665508E-1,3.629609823E0,1.457590008E1,1.502263119E1
2.299855297E0,-5.841852427E-1,3.840299606E0,1.334049225E1,1.389452795E1
2.304860176E0,-8.331822157E-1,4.012681961E0,1.208592987E1,1.276187721E1
2.309895571E0,-1.053448796E0,4.252102375E0,1.095586681E1,1.179920110E1
2.314930967E0,-1.331176162E0,4.529829502E0,1.002691650E1,1.108288951E1
2.319966363E0,-1.762132406E0,4.673481941E0,9.145850182E0,1.042080225E1
2.325001759E0,-2.279279947E0,4.836287498E0,8.283937454E0,9.859432722E0
2.330006637E0,-2.949656487E0,5.046977043E0,7.479485989E0,9.492900574E0
2.335042033E0,-3.524264812E0,5.200206280E0,6.579266071E0,9.096665865E0
2.340077429E0,-4.232948780E0,5.439626217E0,5.698200226E0,8.942979066E0
2.345112825E0,-4.855441093E0,5.449203014E0,4.989516258E0,8.841062956E0
2.350148221E0,-5.506663799E0,5.449203014E0,4.290409565E0,8.855776303E0
2.355153099E0,-6.033388138E0,5.267243862E0,3.629609823E0,8.793161991E0
2.360188495E0,-6.579266071E0,5.046977043E0,3.131615877E0,8.863731568E0
2.365223891E0,-7.086836815E0,4.606443882E0,2.710236311E0,8.876258341E0
2.370259287E0,-7.469909191E0,4.108449936E0,2.346317768E0,8.842177971E0
2.375264164E0,-7.709329605E0,3.620033026E0,1.991975784E0,8.746791960E0
2.380299561E0,-7.852981567E0,3.131615877E0,1.551442742E0,8.595540244E0
2.385334956E0,-7.795520782E0,2.748543501E0,1.197100878E0,8.352106690E0
2.390370353E0,-7.517793179E0,2.336740971E0,7.469909191E-1,7.907943353E0
2.395375230E0,-7.307103634E0,1.924938202E0,4.692635238E-1,7.570954950E0
2.400410627E0,-6.818686485E0,1.742978811E0,2.106897533E-1,7.041083063E0
2.405446022E0,-6.435614109E0,1.436521053E0,1.053448766E-1,6.594832768E0
2.410481419E0,-6.119579315E0,1.426944256E0,6.703764945E-2,6.284100170E0
2.415516814E0,-5.774814606E0,1.417367458E0,7.661445439E-2,5.946703626E0
2.420521693E0,-5.525817394E0,1.436521053E0,1.628057212E-1,5.711808498E0
2.425557088E0,-5.401319027E0,1.436521053E0,3.543418646E-1,5.600303396E0
2.430592485E0,-5.382165432E0,1.398213744E0,4.884171486E-1,5.582226950E0
2.435627880E0,-5.535394192E0,1.388636947E0,8.236053586E-1,5.766040861E0
2.440632759E0,-5.956773758E0,1.436521053E0,1.225831270E0,6.248952604E0
2.445668154E0,-6.426037312E0,1.312022567E0,1.857900500E0,6.816681965E0
2.450703551E0,-6.904877663E0,1.398213744E0,2.537853718E0,7.488193287E0
2.455738946E0,-7.364564419E0,1.484405041E0,3.246537447E0,8.184147653E0
2.460743825E0,-7.747636795E0,1.551442742E0,3.964797974E0,8.840388762E0
2.465779220E0,-8.034940720E0,1.561019540E0,4.778826714E0,9.478092589E0
2.470814616E0,-8.322244644E0,2.068590164E0,5.420472622E0,1.014496647E1
2.475850012E0,-8.609549522E0,3.438073635E0,5.640739441E0,1.085184937E1
2.480885408E0,-9.030928612E0,5.066130638E0,5.851428986E0,1.189380395E1
2.485890286E0,-8.983044624E0,7.220912457E0,5.880159378E0,1.293881531E1
2.490925682E0,-7.996633530E0,9.404424667E0,5.870582581E0,1.366942175E1
2.495961078E0,-5.573701382E0,1.076433086E1,5.640739441E0,1.336992549E1
2.500996474E0,-2.585737944E0,1.077390766E1,5.257667065E0,1.226402014E1
2.506001352E0,-5.937620401E-1,9.988609314E0,4.280832767E0,1.088349202E1
2.511036748E0,-9.193734527E-1,9.308655739E0,3.955221176E0,1.015579114E1
2.516072144E0,-2.738966703E0,9.634267807E0,4.769249916E0,1.109354765E1
2.521107540E0,-4.577713490E0,1.012268448E1,7.603984833E0,1.346271842E1
2.526112418E0,-5.171475887E0,9.720458984E0,1.185608673E1,1.618018165E1
2.531147814E0,-4.376600742E0,7.872135162E0,1.640506935E1,1.871500592E1
2.536183210E0,-3.045424461E0,5.276820660E0,2.052309608E1,2.140833761E1
2.541218606E0,-2.298433542E0,3.102885485E0,2.459324074E1,2.489454127E1
2.546254002E0,-2.365471363E0,1.532289028E0,2.821327209E1,2.835369617E1
2.551258879E0,-3.102885485E0,7.182605267E-1,3.131615829E1,3.147769952E1
2.556294276E0,-3.658340216E0,6.799532771E-1,3.362416840E1,3.382943230E1
2.561329671E0,-3.696647406E0,9.672574997E-1,3.515645599E1,3.536350078E1
2.566365068E0,-3.227383852E0,1.082179189E0,3.600879288E1,3.616932793E1
2.571369945E0,-2.365471363E0,8.714894056E-1,3.603752518E1,3.612558885E1
2.576405342E0,-1.340752959E0,4.692635238E-1,3.482126999E1,3.485023200E1
2.581440737E0,-2.394201756E-1,3.830722719E-2,3.288675308E1,3.288764689E1
2.586476134E0,5.841852427E-1,-3.160346150E-1,3.034889984E1,3.035616695E1
2.591511529E0,1.072602391E0,-3.256114423E-1,2.754289627E1,2.756569668E1
2.596516408E0,1.503558636E0,-2.106897533E-1,2.444958687E1,2.449668093E1
2.601551803E0,1.886630893E0,1.340752989E-1,2.148077774E1,2.156388566E1
2.606587200E0,2.145204782E0,4.022258818E-1,1.861731148E1,1.874481197E1
2.611622595E0,2.298433542E0,6.416460276E-1,1.621353340E1,1.638820221E1
2.616627474E0,2.308010340E0,8.714894056E-1,1.401086807E1,1.422641310E1
2.621662869E0,2.355894566E0,1.101332784E0,1.214339066E1,1.241874026E1
2.626698266E0,2.489969730E0,1.340752959E0,1.070687008E1,1.107405231E1
2.631733661E0,2.719813108E0,1.637633920E0,9.528923035E0,1.004388383E1
2.636738540E0,2.987963676E0,1.972822189E0,8.465897560E0,9.191919050E0
2.641773935E0,3.342305660E0,2.317587137E0,7.556100368E0,8.581192810E0
2.646809332E0,3.849876404E0,2.547430515E0,6.675034523E0,8.115850937E0
2.651844727E0,4.338293552E0,2.710236311E0,5.899312973E0,7.808205003E0
2.656849606E0,4.644751072E0,2.892195702E0,5.094861031E0,7.476370605E0
2.661885001E0,4.740519524E0,2.940079689E0,4.472368717E0,7.149732574E0
2.666920398E0,4.654327869E0,2.882618904E0,3.936067581E0,6.742765580E0
2.671955793E0,4.501099110E0,2.738966703E0,3.485957623E0,6.317731582E0
2.676960672E0,4.108449936E0,2.518700123E0,3.275267839E0,5.826713534E0
2.681996067E0,3.696647406E0,2.384624958E0,3.141192675E0,5.405435195E0
2.687031464E0,3.361459255E0,2.212242365E0,3.169923067E0,5.122678680E0
2.692066859E0,3.016694069E0,2.106897593E0,3.342305660E0,4.970962452E0
2.697071738E0,2.853888512E0,2.059013367E0,3.505111217E0,4.966892422E0
2.702107133E0,2.767697096E0,1.953668594E0,3.696647406E0,5.014196868E0
2.707142529E0,2.949656487E0,1.896207690E0,3.916913986E0,5.257213346E0
2.712177925E0,3.169923067E0,1.714248419E0,4.089296341E0,5.450633400E0
2.717182804E0,3.351882458E0,1.685518026E0,4.156333923E0,5.599214115E0
2.722218199E0,3.543418407E0,1.695094824E0,4.252102375E0,5.788742098E0
2.727253594E0,3.792415380E0,1.455674648E0,4.223371983E0,5.859886859E0
2.732288991E0,4.367023945E0,1.034295082E0,4.098873138E0,6.077945825E0
2.737293869E0,5.343858242E0,3.639186621E-1,3.993528366E0,6.681132128E0
2.742329265E0,4.865017891E0,6.703764796E-1,3.993528366E0,6.329776656E0
2.747364660E0,4.175487995E0,1.177947283E0,3.983951569E0,5.890172315E0
2.752400057E0,3.600879431E0,1.350329757E0,4.146757126E0,5.655556364E0
2.757404935E0,3.083731890E0,1.331176162E0,4.347870350E0,5.494124946E0
2.762440331E0,2.748543501E0,1.101332784E0,4.606443882E0,5.476015934E0
2.767475726E0,2.671929121E0,6.991068721E-1,4.922478676E0,5.644355761E0
2.772511123E0,2.624045134E0,2.873041928E-1,5.228936672E0,5.857468334E0
2.777516001E0,2.442085743E0,9.576806426E-2,5.612008572E0,6.121077888E0
2.782551397E0,2.212242365E0,0.000000000E0,6.301538944E0,6.678578393E0
2.787586792E0,2.078166962E0,-5.746084079E-2,7.335834026E0,7.624732161E0
2.792622189E0,1.972822189E0,2.681505978E-1,8.456320763E0,8.687536646E0
2.797627067E0,1.963245392E0,7.469909191E-1,9.586383820E0,9.813821001E0
2.802662463E0,2.078166962E0,1.580173135E0,1.020887566E1,1.053740325E1
2.807697858E0,2.173935175E0,2.595314741E0,1.048660374E1,1.101955129E1
2.812733255E0,2.068590164E0,3.983951569E0,1.034295177E1,1.127508700E1
2.817738133E0,2.298433542E0,5.573701382E0,1.017056847E1,1.182325703E1
2.822773529E0,3.658340216E0,7.173028469E0,9.605537415E0,1.253403924E1
2.827808924E0,5.650316238E0,8.293514252E0,8.762778282E0,1.332271502E1
2.832844321E0,7.086836815E0,8.427590370E0,7.575253963E0,1.336532858E1
2.837849199E0,7.441178799E0,7.613561630E0,6.540958881E0,1.249486317E1
2.842884595E0,6.722918510E0,6.732495308E0,5.861005783E0,1.117477137E1
2.847919990E0,5.267243862E0,6.550535679E0,5.822698593E0,1.022532124E1
2.852955387E0,3.447650433E0,6.828263283E0,6.675034523E0,1.015221941E1
2.857960265E0,2.020706177E0,6.847416878E0,8.437167168E0,1.105242784E1
2.862995661E0,1.551442742E0,6.177040577E0,1.078348446E1,1.252383096E1
2.868031056E0,2.116474390E0,4.778826714E0,1.332133865E1,1.430995151E1
2.873066453E0,2.844311714E0,3.189076662E0,1.585919189E1,1.642480705E1
2.878071331E0,3.150769472E0,2.011129379E0,1.801397324E1,1.839769609E1
2.883106727E0,3.074155092E0,1.369483352E0,1.964203072E1,1.992825343E1
2.888142122E0,2.738966703E0,1.206677675E0,2.075294113E1,2.096765545E1
2.893177519E0,2.461239338E0,1.340752959E0,2.129881859E1,2.148243447E1
2.898182397E0,2.116474390E0,1.561019540E0,2.124135780E1,2.140354006E1
2.903217792E0,1.924938202E0,1.685518026E0,2.077209473E1,2.092907732E1
2.908253188E0,2.078166962E0,1.513135433E0,1.979525948E1,1.996147927E1
2.913288584E0,2.336740971E0,1.120486379E0,1.862688828E1,1.880629721E1
2.918293463E0,2.633621931E0,7.469909191E-1,1.713290787E1,1.735023031E1
2.923328858E0,2.595314741E0,3.926490843E-1,1.585919189E1,1.607494322E1
2.928364254E0,2.355894566E0,3.256114423E-1,1.430774975E1,1.450406718E1
2.933399650E0,1.886630893E0,3.256114423E-1,1.277546024E1,1.291811841E1
2.938404529E0,1.321599364E0,5.267243981E-1,1.127190113E1,1.136132996E1
2.943439924E0,8.140285611E-1,7.565677166E-1,9.768342972E0,9.831356042E0
2.948475320E0,4.596867263E-1,9.289502501E-1,8.331821442E0,8.396041269E0
2.953510716E0,3.639186621E-1,1.091755986E0,7.000645638E0,7.094604095E0
2.958515595E0,5.554547906E-1,1.340752959E0,5.832275391E0,6.010123522E0
2.963550990E0,8.331822157E-1,1.541865945E0,4.912901878E0,5.216143026E0
2.968586386E0,1.139639974E0,1.695094824E0,4.165910721E0,4.639713123E0
2.973621782E0,1.312022567E0,1.905784607E0,3.438073635E0,4.144124576E0
2.978626660E0,1.417367458E0,2.039859772E0,3.007117271E0,3.900347765E0
2.983662056E0,1.398213744E0,2.116474390E0,2.633621931E0,3.656559858E0
2.988697452E0,1.292868972E0,2.212242365E0,2.403778553E0,3.513357054E0
2.993732848E0,1.024718285E0,2.126051188E0,2.154781580E0,3.195813648E0
2.998737726E0,6.895300746E-1,2.011129379E0,2.068590164E0,2.966337535E0
3.003773122E0,2.777273953E-1,1.762132406E0,2.001552582E0,2.681129587E0
3.008808518E0,-1.532289088E-1,1.484405041E0,1.877054095E0,2.397971956E0
3.013813396E0,-6.320692301E-1,1.206677675E0,1.915361404E0,2.350359937E0
3.018848792E0,-1.110909581E0,8.810662031E-1,1.953668594E0,2.413963282E0
3.023884188E0,-1.379060149E0,5.554547906E-1,2.106897593E0,2.578634209E0
3.028919584E0,-1.541865945E0,2.585737705E-1,2.279279947E0,2.763933441E0
3.033954980E0,-1.762132406E0,4.788403213E-2,2.375048161E0,2.957745300E0
3.038959858E0,-1.877054095E0,-5.746084079E-2,2.432508945E0,3.073065830E0
3.043995254E0,-1.991975784E0,-1.532289088E-1,2.557007313E0,3.244955011E0
3.049030650E0,-2.173935175E0,-1.436520964E-1,2.643198729E0,3.425365614E0
3.054066046E0,-2.308010340E0,-1.149216816E-1,2.901772499E0,3.709501632E0
3.059070924E0,-2.557007313E0,-1.915361360E-2,3.246537447E0,4.132633380E0
3.064106320E0,-2.652775526E0,5.746084079E-2,3.734954596E0,4.581528737E0
3.069141716E0,-2.662352324E0,-1.053448766E-1,4.156333923E0,4.937036471E0
3.074177112E0,-2.710236311E0,-2.106897533E-1,4.730942726E0,5.456334861E0
3.079181990E0,-2.959233284E0,-3.734954596E-1,5.343858242E0,6.119916780E0
3.084217386E0,-3.246537447E0,-4.692635238E-1,5.985504150E0,6.825428454E0
3.089252781E0,-3.533841610E0,-6.033388376E-1,6.588842869E0,7.500993576E0
3.094257660E0,-3.792415380E0,-7.469909191E-1,7.144298077E0,8.122893872E0
3.099293055E0,-4.060565948E0,-9.864110947E-1,7.613561630E0,8.684902036E0
3.104328452E0,-4.357447147E0,-1.130063176E0,8.140285492E0,9.302076989E0
3.109363847E0,-4.740519524E0,-1.369483352E0,8.523358345E0,9.848636834E0
3.114368726E0,-5.094861031E0,-1.302445769E0,8.810662270E0,1.026068923E1
3.119404121E0,-5.391742229E0,-1.244984865E0,9.088389397E0,1.064047430E1
3.124439518E0,-5.458779812E0,-1.244984865E0,9.385271072E0,1.092847553E1
3.129474913E0,-5.449203014E0,-1.235408068E0,9.452308655E0,1.098026345E1
3.134479792E0,-5.343858242E0,-8.714894056E-1,9.481039047E0,1.091816908E1
3.139515187E0,-5.487510204E0,-2.681505978E-1,9.433155060E0,1.091645947E1
3.144550584E0,-5.363011837E0,4.596867263E-1,9.337387085E0,1.077775512E1
3.149585979E0,-5.123591423E0,1.407790542E0,9.414001465E0,1.081001789E1
3.154590858E0,-4.683058739E0,2.346317768E0,9.279925346E0,1.065613723E1
3.159626253E0,-4.022258759E0,3.323152065E0,9.030928612E0,1.042974481E1
3.164661650E0,-3.179499865E0,4.242525578E0,8.590395927E0,1.009470876E1
3.169697045E0,-2.231395960E0,4.893748283E0,8.159439087E0,9.772632522E0
3.174701924E0,-1.312022567E0,5.133168221E0,7.728483200E0,9.370179922E0
3.179737319E0,-1.187524080E0,5.104437828E0,7.489062786E0,9.140654265E0
3.184772716E0,-1.675941229E0,5.037400246E0,7.517793179E0,9.203336053E0
3.189808111E0,-2.566584110E0,5.171475887E0,7.766790390E0,9.677528084E0
3.194812990E0,-3.409343243E0,5.736507416E0,8.398859978E0,1.072716121E1
3.199848385E0,-3.983951569E0,6.349422932E0,9.471462250E0,1.207872671E1
3.204883782E0,-3.916913986E0,6.732495308E0,1.148259163E1,1.387510788E1
3.209919177E0,-3.390189648E0,6.742072105E0,1.404917526E1,1.594767217E1
3.214924056E0,-3.064578056E0,6.531382084E0,1.698925591E1,1.845766526E1
3.219959451E0,-3.093308687E0,5.832275391E0,2.025494576E1,2.130368096E1
3.224994848E0,-3.610456228E0,5.037400246E0,2.373132706E1,2.452726400E1
3.230030243E0,-4.156333923E0,4.252102375E0,2.701617241E1,2.766277387E1
3.235035122E0,-4.347870350E0,3.409343243E0,3.010947990E1,3.061222596E1
3.240070517E0,-3.821146011E0,2.509123325E0,3.263775635E1,3.295633469E1
3.245105914E0,-2.767697096E0,1.474828243E0,3.449565887E1,3.463792353E1
3.250141309E0,-1.675941229E0,5.554547906E-1,3.574064255E1,3.578422612E1
3.255176704E0,-4.596867263E-1,-1.340752989E-1,3.604710007E1,3.605028032E1
3.260181583E0,8.044517636E-1,-2.298433632E-1,3.583641052E1,3.584617539E1
3.265216979E0,2.087743998E0,-1.436520964E-1,3.488830566E1,3.495101119E1
3.270252375E0,3.351882458E0,1.532289088E-1,3.359543991E1,3.376258547E1
3.275257253E0,4.635174274E0,6.033388376E-1,3.184288216E1,3.218412656E1
3.280292649E0,5.564124584E0,1.053448796E0,2.984132957E1,3.037390636E1
3.285328045E0,6.052541733E0,1.417367458E0,2.753331947E1,2.822633297E1
3.290363441E0,6.215347767E0,1.991975784E0,2.504335022E1,2.587987453E1
3.295368319E0,6.263231754E0,2.432508945E0,2.276407051E1,2.373495477E1
3.300403715E0,5.995080948E0,2.844311714E0,2.053267288E1,2.157827056E1
3.305439111E0,5.477933407E0,3.074155092E0,1.868435097E1,1.971200535E1
3.310474507E0,4.932055473E0,3.246537447E0,1.694137192E1,1.794088234E1
3.315479385E0,4.261679173E0,3.303998232E0,1.548569679E1,1.639771688E1
3.320514781E0,3.495534420E0,3.495534420E0,1.412578964E1,1.496580953E1
3.325550177E0,2.767697096E0,3.418920040E0,1.268926907E1,1.343006742E1
3.330585573E0,2.193088770E0,3.495534420E0,1.131978607E1,1.204848355E1
3.335590451E0,1.781286120E0,3.428496838E0,1.010353088E1,1.081706555E1
3.340625847E0,1.417367458E0,3.275267839E0,9.069235802E0,9.746145287E0
3.345661243E0,1.254561663E0,3.342305660E0,8.092401505E0,8.844879547E0
3.350696639E0,9.959878922E-1,3.284844637E0,6.924031258E0,7.728156638E0
3.355701517E0,8.619126081E-1,3.074155092E0,6.042964935E0,6.834526178E0
3.360736913E0,8.236053586E-1,3.122039080E0,5.286397457E0,6.194469459E0
3.365772309E0,9.289502501E-1,2.930502892E0,4.654327869E0,5.577953359E0
3.370807705E0,9.097966552E-1,2.777273893E0,4.213795185E0,5.128064946E0
3.375812583E0,9.193734527E-1,2.537853718E0,3.859453201E0,4.709705729E0
3.380847979E0,1.034295082E0,2.336740971E0,3.744531393E0,4.533391670E0
3.385883375E0,1.101332784E0,2.269703150E0,3.514688015E0,4.326374710E0
3.390918771E0,1.350329757E0,1.953668594E0,3.303998232E0,4.068982151E0
3.395923649E0,1.493981838E0,1.714248419E0,3.055001259E0,3.808367375E0
3.400959045E0,1.580173135E0,1.446097851E0,2.758120298E0,3.492187525E0
3.405994441E0,1.762132406E0,1.254561663E0,2.489969730E0,3.298330614E0
3.411029837E0,2.059013367E0,1.197100878E0,2.279279947E0,3.296620032E0
3.416034715E0,2.106897593E0,1.053448796E0,2.126051188E0,3.173147567E0
3.421070111E0,2.059013367E0,9.385270476E-1,2.126051188E0,3.104909454E0
3.426105507E0,1.934514999E0,8.714894056E-1,1.972822189E0,2.897217537E0
3.431140903E0,1.781286120E0,7.852981687E-1,1.781286120E0,2.638684085E0
3.436145781E0,1.541865945E0,6.224924326E-1,1.704671621E0,2.381334239E0
3.441181177E0,1.273715258E0,4.979939461E-1,1.484405041E0,2.018367373E0
3.446216573E0,1.063025594E0,4.118026793E-1,1.177947283E0,1.639257350E0
3.451251968E0,1.024718285E0,1.819593310E-1,1.072602391E0,1.494534259E0
3.456256847E0,1.091755986E0,6.703764945E-2,8.331822157E-1,1.374997376E0
3.461292242E0,1.120486379E0,-2.873042040E-2,6.895300746E-1,1.315966142E0
3.466327639E0,1.273715258E0,-4.788403213E-2,3.734954596E-1,1.328210185E0
3.471363034E0,1.589749932E0,4.788403213E-2,1.915361285E-1,1.601962489E0
3.476367913E0,2.011129379E0,1.340752989E-1,-2.873042040E-2,2.015798354E0
3.481403308E0,2.480392933E0,2.873041928E-1,-9.576806426E-2,2.498812583E0
3.486438704E0,3.035847664E0,5.841852427E-1,0.000000000E0,3.091543860E0
3.491474100E0,3.687070608E0,7.469909191E-1,0.000000000E0,3.761978881E0
3.496478979E0,4.175487995E0,9.576807022E-1,1.723825186E-1,4.287373095E0
3.501514374E0,4.577713490E0,1.177947283E0,4.405331016E-1,4.747324510E0
3.506549770E0,4.845864296E0,1.350329757E0,9.097966552E-1,5.112095576E0
3.511585166E0,4.807557106E0,1.589749932E0,1.340752959E0,5.238084447E0
3.516590045E0,4.558559895E0,1.714248419E0,1.953668594E0,5.247469574E0
3.521625440E0,4.050989151E0,1.991975784E0,2.413355350E0,5.118863612E0
3.526660836E0,3.466804028E0,2.442085743E0,2.987963676E0,5.187527337E0
3.531696232E0,3.007117271E0,3.074155092E0,3.706224203E0,5.677083905E0
3.536701111E0,2.710236311E0,3.792415380E0,4.462791920E0,6.453240039E0
3.541736506E0,2.777273893E0,4.587290287E0,5.238513470E0,7.496566269E0
3.546771902E0,3.246537447E0,5.458779812E0,6.110002518E0,8.813081935E0
3.551807298E0,4.223371983E0,6.742072105E0,6.837840080E0,1.049039866E1
3.556812177E0,5.506663799E0,8.092401505E0,7.450755596E0,1.230138477E1
3.561847572E0,6.904877663E0,9.433155060E0,8.082824707E0,1.421245247E1
3.566882968E0,7.785943985E0,1.019929886E1,9.011775017E0,1.567988233E1
3.571918364E0,7.527369976E0,1.022802925E1,1.035252857E1,1.638440505E1
3.576923243E0,6.138733387E0,9.634267807E0,1.212423706E1,1.665833990E1
3.581958638E0,4.424484730E0,8.992621422E0,1.460463047E1,1.771266599E1
3.586994034E0,2.949656487E0,8.638279915E0,1.677856636E1,1.910080214E1
3.592029430E0,2.059013367E0,8.935160637E0,1.856942749E1,2.070990751E1
3.597034309E0,2.059013367E0,9.212887764E0,1.991975784E1,2.204344777E1
3.602069704E0,2.528276920E0,9.193734169E0,2.108812904E1,2.314359779E1
3.607105100E0,3.007117271E0,8.801085472E0,2.197877121E1,2.386562892E1
3.612140496E0,3.284844637E0,8.092401505E0,2.245761108E1,2.409608811E1
3.617175891E0,3.332728863E0,7.134721279E0,2.237141991E1,2.371690869E1
3.622180770E0,3.227383852E0,6.282385349E0,2.172019768E1,2.283968825E1
3.627216165E0,3.083731890E0,5.650316238E0,2.044648170E1,2.143581326E1
3.632251562E0,2.892195702E0,5.430049419E0,1.849281311E1,1.948933989E1
3.637286957E0,2.547430515E0,5.554547787E0,1.624226379E1,1.735377586E1
3.642291836E0,2.011129379E0,6.052541733E0,1.374271774E1,1.515058394E1
3.647327231E0,1.302445769E0,6.703764915E0,1.137724686E1,1.326946024E1
3.652362628E0,6.512228847E-1,7.374141216E0,9.270348549E0,1.186344858E1
3.657398023E0,-1.915361360E-2,7.833827972E0,7.422025204E0,1.079146356E1
3.662402902E0,-7.565677166E-1,8.188169479E0,6.023811340E0,1.019337124E1
3.667438297E0,-1.407790542E0,8.379706383E0,4.817133904E0,9.767606274E0
3.672473694E0,-1.953668594E0,8.513781548E0,4.079719543E0,9.640819922E0
3.677509089E0,-2.365471363E0,8.580819130E0,3.658340216E0,9.623375959E0
3.682513968E0,-2.643198729E0,8.724471092E0,3.476380825E0,9.756439873E0
3.687549363E0,-2.892195702E0,8.676587105E0,3.581725836E0,9.822256346E0
3.692584760E0,-2.968810081E0,8.542511940E0,3.974374771E0,9.878461336E0
3.697620155E0,-3.141192675E0,8.475474358E0,4.309563160E0,1.001364527E1
3.702625034E0,-3.246537447E0,8.379706383E0,4.663905144E0,1.012479608E1
3.707660429E0,-3.457227230E0,8.111555099E0,4.989516258E0,1.013138780E1
3.712695826E0,-3.648763418E0,7.738059998E0,5.008669853E0,9.913517070E0
3.717731221E0,-3.869029999E0,7.230489254E0,4.702212334E0,9.453050768E0
3.722736100E0,-4.127603531E0,6.713341713E0,4.022258759E0,8.847860385E0
3.727771495E0,-4.462791920E0,6.081272125E0,3.342305660E0,8.250417535E0
3.732806892E0,-4.845864296E0,5.420472622E0,2.614468336E0,7.726536669E0
3.737811770E0,-5.497087002E0,4.960785866E0,1.991975784E0,7.667811255E0
3.742847166E0,-6.349422932E0,4.481945515E0,1.503558636E0,7.916040407E0
3.747882561E0,-6.914454460E0,3.983951569E0,1.321599364E0,8.088768476E0
3.752917958E0,-7.422025204E0,3.466804028E0,1.110909581E0,8.266759243E0
3.757922835E0,-7.872135162E0,2.940079689E0,1.101332784E0,8.475111474E0
3.762958232E0,-8.082824707E0,2.489969730E0,1.235408068E0,8.547411163E0
3.767993627E0,-8.236053467E0,2.049436569E0,1.599326730E0,8.636585723E0
3.773029024E0,-8.159439087E0,1.628057122E0,1.877054095E0,8.529381471E0
3.778033901E0,-7.920019150E0,1.273715258E0,2.442085743E0,8.385274991E0
3.783069298E0,-7.594407558E0,9.385270476E-1,2.987963676E0,8.214851558E0
3.788104693E0,-6.952761650E0,4.501099288E-1,3.658340216E0,7.869367614E0
3.793140090E0,-6.339846134E0,2.681505978E-1,4.414907932E0,7.730262984E0
3.798144967E0,-5.803544998E0,7.661445439E-2,5.391742229E0,7.921987667E0
3.803180363E0,-5.334281445E0,3.830722719E-2,6.196194172E0,8.176114492E0
3.808215759E0,-5.152322292E0,9.576806426E-2,6.617573261E0,8.387363853E0
3.813220637E0,-5.008669853E0,9.576806426E-2,6.924031258E0,8.546236252E0
3.818256033E0,-5.046977043E0,6.703764945E-2,6.943184853E0,8.583955220E0
3.823291429E0,-5.046977043E0,-2.873042040E-2,6.847416878E0,8.506463461E0
3.828326825E0,-5.372588634E0,-1.340752989E-1,6.895300865E0,8.742302834E0
3.833331703E0,-6.033388138E0,-2.489969730E-1,7.316680431E0,9.486705669E0
3.838367099E0,-6.828263283E0,-2.394201756E-1,8.006210327E0,1.052529835E1
3.843402495E0,-7.326257229E0,-2.106897533E-1,9.069235802E0,1.166059489E1
3.848437891E0,-7.441178799E0,-2.202665508E-1,1.032379818E1,1.272794045E1
3.853442769E0,-7.058106422E0,3.830722719E-2,1.120486355E1,1.324263195E1
3.858478165E0,-6.272808552E0,3.639186621E-1,1.187524033E1,1.343509943E1
3.863513561E0,-5.152322292E0,9.289502501E-1,1.229662037E1,1.336473891E1
3.868548957E0,-4.165910721E0,1.790862918E0,1.232535076E1,1.313302225E1
3.873553835E0,-3.112462282E0,2.614468336E0,1.199973869E1,1.266951439E1
3.878589231E0,-1.991975784E0,3.380612850E0,1.153047562E1,1.217983492E1
3.883624627E0,-8.427590132E-1,3.897760391E0,1.134851646E1,1.202878235E1
3.888660023E0,3.926490843E-1,3.926490784E0,1.136767006E1,1.203309710E1
3.893664901E0,1.398213744E0,3.811569214E0,1.169328117E1,1.237804048E1
3.898700297E0,1.896207690E0,3.830722809E0,1.263180828E1,1.333538981E1
3.903735693E0,1.877054095E0,4.118026733E0,1.435563374E1,1.505209940E1
3.908771089E0,2.039859772E0,4.884171486E0,1.701798630E1,1.782212155E1
3.913775967E0,2.480392933E0,5.765237808E0,2.051351929E1,2.145215117E1
3.918811363E0,3.514688015E0,6.330269337E0,2.415270615E1,2.521464963E1
3.923846759E0,5.161899090E0,6.378153324E0,2.738009071E1,2.858313156E1
3.928882155E0,6.742072105E0,5.793968201E0,3.002328873E1,3.131171458E1
3.933887033E0,7.795520782E0,5.209783077E0,3.152684784E1,3.289155087E1
3.938922429E0,8.169015884E0,4.807557106E0,3.201526642E1,3.338896090E1
3.943957825E0,7.929595947E0,4.759673119E0,3.154600143E1,3.287374616E1
3.948993221E0,7.307103634E0,5.104437828E0,3.011905670E1,3.141029490E1
3.953998099E0,6.770802498E0,5.439626217E0,2.802173615E1,2.933685389E1
3.959033495E0,6.607996464E0,5.612008572E0,2.529234695E1,2.673692338E1
3.964068891E0,6.646304131E0,5.583278179E0,2.230438232E1,2.393390534E1
3.969104287E0,6.809109688E0,5.477933407E0,1.936430359E1,2.124495193E1
3.974139683E0,6.895300865E0,5.075707436E0,1.652956772E1,1.861543953E1
3.979144561E0,6.675034523E0,4.855441093E0,1.430774975E1,1.651796286E1
3.984179957E0,6.215347767E0,4.788403511E0,1.266053867E1,1.489458276E1
3.989215352E0,5.583278179E0,4.797980309E0,1.158793640E1,1.372857896E1
3.994250748E0,5.046977043E0,4.807557106E0,1.104205799E1,1.305801008E1
3.999255626E0,4.596867085E0,4.807557106E0,1.088882923E1,1.275971764E1
4.004291023E0,4.309563160E0,4.702212334E0,1.098459721E1,1.270214593E1
4.009326418E0,4.280832767E0,4.424484730E0,1.116655636E1,1.275121858E1
4.014361814E0,4.242525578E0,4.041412354E0,1.153047562E1,1.293382793E1
4.019366692E0,4.232948780E0,3.830722809E0,1.151132202E1,1.284923450E1
4.024402089E0,4.261679173E0,3.658340216E0,1.147301483E1,1.277401393E1
4.029437484E0,4.357447147E0,3.485957623E0,1.118570995E1,1.250037413E1
4.034472880E0,4.491522312E0,3.371036053E0,1.076433086E1,1.214118922E1
4.039477758E0,4.740519524E0,3.256114244E0,1.027591324E1,1.177578865E1
4.044513155E0,5.056553841E0,3.141192675E0,9.634267807E0,1.132496995E1
4.049548550E0,5.181052685E0,2.901772499E0,9.002198219E0,1.078439444E1
4.054583946E0,5.267243862E0,2.671929121E0,8.331821442E0,1.021285032E1
4.059588824E0,5.401319027E0,2.317587137E0,7.661445618E0,9.656252188E0
4.064624221E0,5.343858242E0,2.087743998E0,7.010222435E0,9.058626524E0
4.069659616E0,5.324704647E0,1.810016513E0,6.368576527E0,8.496317222E0
4.074695012E0,5.248090267E0,1.580173135E0,5.621585369E0,7.851217781E0
4.079699890E0,5.075707436E0,1.283292055E0,4.817133904E0,7.114381457E0
4.084735287E0,5.056553841E0,1.063025594E0,4.041412354E0,6.559860819E0
4.089770682E0,4.941632271E0,9.768342972E-1,3.112462282E0,5.921263058E0
4.094806078E0,4.769249916E0,7.852981687E-1,2.164358377E0,5.295931000E0
4.099810956E0,4.491522312E0,5.841852427E-1,1.187524080E0,4.682441513E0
4.104846353E0,4.118026733E0,4.405331016E-1,2.873041928E-1,4.151476519E0
4.109881748E0,3.869029999E0,2.011129409E-1,-3.543418646E-1,3.890423846E0
4.114917144E0,3.706224203E0,-1.915361360E-2,-9.097966552E-1,3.816306416E0
4.119922022E0,3.658340216E0,-2.106897533E-1,-1.264138460E0,3.876324206E0
4.124957419E0,4.041412354E0,-6.033388376E-1,-1.407790542E0,4.321909968E0
4.129992814E0,4.290409565E0,-8.236053586E-1,-1.436521053E0,4.598862116E0
4.135028210E0,4.577713490E0,-9.002198577E-1,-1.350329757E0,4.856876263E0
4.140033088E0,5.046977043E0,-8.619126081E-1,-1.139639974E0,5.245345545E0
4.145068485E0,5.458779812E0,-8.236053586E-1,-8.331822157E-1,5.583081177E0
4.150103880E0,5.803544998E0,-6.895300746E-1,-3.734954596E-1,5.856285950E0
4.155139275E0,5.985504150E0,-5.746083856E-1,1.149216816E-1,6.014120195E0
4.160144154E0,5.937620163E0,-4.692635238E-1,6.129156351E-1,5.987587747E0
4.165179550E0,5.726930618E0,-3.543418646E-1,1.446097851E0,5.917304408E0
4.170214946E0,5.334281445E0,-2.489969730E-1,2.221819162E0,5.783860165E0
4.175250341E0,4.893748283E0,-1.340752989E-1,2.987963676E0,5.735387989E0
4.180255220E0,4.520252705E0,-7.661445439E-2,3.926490784E0,5.987978303E0
4.185290616E0,4.118026733E0,2.873042040E-2,4.673481941E0,6.228996955E0
4.190326012E0,3.782838583E0,3.830722570E-1,5.238513470E0,6.472915531E0
4.195361407E0,3.265691042E0,1.187524080E0,5.813121796E0,6.772542834E0
4.200366286E0,3.026270866E0,2.509123325E0,6.186617374E0,7.329955645E0
4.205401682E0,3.696647406E0,3.840299606E0,6.560112476E0,8.452702456E0
4.210437078E0,4.865017891E0,4.932055473E0,7.010222435E0,9.855799757E0
4.215472473E0,6.406883717E0,5.688623428E0,7.211335659E0,1.119874803E1
4.220477352E0,7.603984833E0,5.966350555E0,7.067683220E0,1.197372417E1
4.225512748E0,8.111555099E0,6.148310184E0,6.560112476E0,1.210925761E1
4.230548144E0,8.006210327E0,5.956773758E0,6.157886982E0,1.172613020E1
4.235583539E0,7.450755596E0,5.774814606E0,6.138733387E0,1.124927954E1
4.240588418E0,7.728483200E0,6.157886982E0,6.253654957E0,1.169432448E1
4.245623814E0,9.366117477E0,7.144298077E0,6.770802498E0,1.358708645E1
4.250659210E0,1.078348446E1,8.140285492E0,7.527369976E0,1.546638561E1
4.255694605E0,1.154005241E1,8.408436775E0,8.293514252E0,1.651232865E1
4.260699484E0,1.140597725E1,7.881711960E0,9.404424667E0,1.675293717E1
4.265734879E0,1.084094524E1,6.493074894E0,1.121444035E1,1.689525932E1
4.270770276E0,1.032379818E1,4.855441093E0,1.319683933E1,1.744456034E1
4.275805671E0,9.768342972E0,3.428496838E0,1.497812557E1,1.820767313E1
4.280810550E0,8.667010307E0,2.480392933E0,1.652956772E1,1.882806484E1
4.285845945E0,7.297526836E0,2.078166962E0,1.767878532E1,1.923829843E1
4.290881342E0,5.612008572E0,1.991975784E0,1.864604378E1,1.957389987E1
4.295916737E0,4.165910721E0,2.097320795E0,1.939303398E1,1.994601047E1
4.300921616E0,3.122039080E0,2.106897593E0,1.985272026E1,2.020684654E1
4.305957011E0,2.260126352E0,1.905784607E0,2.009214020E1,2.030847813E1
4.310992408E0,1.819593310E0,1.551442742E0,1.993891144E1,2.008178487E1
4.316027803E0,1.493981838E0,1.264138460E0,1.972822189E1,1.982505402E1
4.321032682E0,1.283292055E0,9.193734527E-1,1.925895882E1,1.932354990E1
4.326068077E0,9.768342972E-1,8.140285611E-1,1.871308136E1,1.875623261E1
4.331103474E0,7.852981687E-1,8.331822157E-1,1.789905167E1,1.793563315E1
4.336138869E0,4.596867263E-1,1.072602391E0,1.687433434E1,1.691463706E1
4.341143747E0,1.532289088E-1,1.321599364E0,1.577300072E1,1.582901310E1
4.346179143E0,-1.915361285E-1,1.656787634E0,1.469082165E1,1.478519097E1
4.351214539E0,-4.692635238E-1,1.886630893E0,1.345541382E1,1.359513683E1
4.356249935E0,-6.512228847E-1,2.030282974E0,1.226788998E1,1.245179765E1
4.361254813E0,-7.757213712E-1,2.087743998E0,1.106121159E1,1.128320967E1
4.366290209E0,-8.427590132E-1,2.346317768E0,9.892841339E0,1.020214485E1
4.371325605E0,-7.182605267E-1,2.662352324E0,8.638279915E0,9.067739408E0
4.376361001E0,-6.607996821E-1,2.901772499E0,7.393294811E0,7.969802257E0
4.381365879E0,-4.884171486E-1,3.093308687E0,6.167463779E0,6.916987742E0
4.386401275E0,-3.543418646E-1,3.179499865E0,5.046977043E0,5.975512934E0
4.391436671E0,-1.628057212E-1,3.198653460E0,3.993528366E0,5.119195100E0
4.396472067E0,-1.053448766E-1,3.198653460E0,2.959233284E0,4.358846536E0
4.401476945E0,-1.915361360E-2,3.131615877E0,2.231395960E0,3.845323496E0
4.406512341E0,9.576806426E-2,3.035847664E0,1.714248419E0,3.487719914E0
4.411547737E0,6.703764945E-2,2.729389906E0,1.321599364E0,3.033263619E0
4.416583133E0,1.915361360E-2,2.470816135E0,1.158793569E0,2.729121062E0
4.421588011E0,-9.576806426E-2,2.308010340E0,1.101332784E0,2.559104756E0
4.426623407E0,-2.489969730E-1,2.250549555E0,1.168370485E0,2.547952586E0
4.431658803E0,-2.968810201E-1,2.202665567E0,1.302445769E0,2.576089852E0
4.436663682E0,-2.968810201E-1,2.154781580E0,1.503558636E0,2.644222110E0
4.441699077E0,-3.734954596E-1,2.317587137E0,1.838746905E0,2.981895233E0
4.446734473E0,-4.309563041E-1,2.260126352E0,2.173935175E0,3.165420763E0
4.451769869E0,-4.884171486E-1,2.346317768E0,2.489969730E0,3.455966961E0
4.456774748E0,-5.650315881E-1,2.394201756E0,2.987963676E0,3.870321650E0
4.461810143E0,-6.799532771E-1,2.422932148E0,3.342305660E0,4.183771478E0
4.466845539E0,-7.086837292E-1,2.413355350E0,3.610456228E0,4.400217137E0
4.471880935E0,-7.661445141E-1,2.355894566E0,3.734954596E0,4.481863725E0
4.476885814E0,-9.097966552E-1,2.202665567E0,3.974374771E0,4.634125632E0
4.481921209E0,-1.149216771E0,2.087743998E0,4.031835556E0,4.683489312E0
4.486956605E0,-1.599326730E0,1.742978811E0,4.118026733E0,4.749101526E0
4.491992001E0,-2.250549555E0,1.570596337E0,4.386177540E0,5.174002277E0
4.496996880E0,-3.122039080E0,1.235408068E0,4.932055473E0,5.966450561E0
4.502032275E0,-3.964797974E0,1.101332784E0,5.544970989E0,6.905017027E0
4.507067671E0,-4.989516258E0,1.091755986E0,6.426037312E0,8.208602753E0
4.512103067E0,-6.014234543E0,1.273715258E0,7.402871609E0,9.622675083E0
4.517107946E0,-6.952761650E0,1.580173135E0,8.283937454E0,1.092984270E1
4.522143341E0,-7.757213593E0,2.039859772E0,9.308655739E0,1.228765487E1
4.527178736E0,-8.446743965E0,2.451662540E0,1.017056847E1,1.344613683E1
4.532214133E0,-8.542511940E0,2.643198729E0,1.080263805E1,1.402348026E1
4.537219010E0,-8.188169479E0,2.566584110E0,1.121444035E1,1.412080542E1
4.542254407E0,-7.900865555E0,2.470816135E0,1.143470764E1,1.411669748E1
4.547289802E0,-8.188169479E0,2.853888512E0,1.108994198E1,1.407755704E1
4.552294681E0,-9.097966194E0,4.127603531E0,1.041956615E1,1.443528519E1
4.557330076E0,-1.029506683E1,5.774814606E0,9.816226959E0,1.535236778E1
4.562365473E0,-1.140597725E1,7.182605267E0,9.892841339E0,1.671988173E1
4.567400868E0,-1.179862595E1,8.226476669E0,1.048660374E1,1.780031883E1
4.572436265E0,-1.093671322E1,8.485051155E0,1.103248119E1,1.770094434E1
4.577441142E0,-9.193734169E0,8.532935143E0,1.075475407E1,1.652272572E1
4.582476539E0,-7.307103634E0,8.781931877E0,1.042914295E1,1.546877868E1
4.587511934E0,-6.052541733E0,9.710882187E0,1.021845245E1,1.534116243E1
4.592547331E0,-5.276820660E0,1.063983250E1,1.103248119E1,1.621007443E1
4.597552208E0,-3.888183594E0,1.061110210E1,1.273715305E1,1.702787501E1
4.602587605E0,-1.551442742E0,9.260771751E0,1.457590008E1,1.733856197E1
4.607623000E0,3.160346150E-1,7.077260017E0,1.609861183E1,1.758842773E1
4.612658397E0,1.197100878E0,5.037400246E0,1.779370689E1,1.853171489E1
4.617663274E0,1.158793569E0,3.505111217E0,1.932599640E1,1.967543504E1
4.622698671E0,4.213795066E-1,2.097320795E0,2.104024506E1,2.114871692E1
4.627734066E0,-7.278373241E-1,1.235408068E0,2.259168816E1,2.263714545E1
4.632769463E0,-1.714248419E0,7.086837292E-1,2.385582542E1,2.392783498E1
4.637774340E0,-2.288856745E0,5.937620401E-1,2.481350708E1,2.492592129E1
4.642809737E0,-2.260126352E0,7.469909191E-1,2.550303650E1,2.561388368E1
4.647845132E0,-1.656787634E0,9.864110947E-1,2.576161003E1,2.583366996E1
4.652880529E0,-3.639186621E-1,1.283292055E0,2.547430611E1,2.550920514E1
4.657885406E0,1.312022567E0,1.446097851E0,2.484223747E1,2.491885561E1
4.662920803E0,2.911349297E0,1.628057122E0,2.384624863E1,2.407841561E1
4.667956198E0,4.194641590E0,1.714248419E0,2.255337906E1,2.300409904E1
4.672991595E0,4.903325081E0,1.915361404E0,2.114558983E1,2.179098840E1
4.677996472E0,5.391742229E0,2.059013367E0,1.880884933E1,1.967443096E1
4.683031869E0,5.717353821E0,2.068590164E0,1.654872131E1,1.763029714E1
4.688067264E0,5.803544998E0,2.164358377E0,1.416409683E1,1.545921152E1
4.693102661E0,5.784391403E0,2.308010340E0,1.181777954E1,1.335836850E1
4.698107538E0,5.726930618E0,2.595314741E0,9.586383820E0,1.146438606E1
4.703142934E0,5.612008572E0,3.007117271E0,7.671022415E0,9.969051078E0
4.708178330E0,5.707777023E0,3.284844637E0,6.263231754E0,9.088288884E0
4.713213726E0,5.669469833E0,3.591302633E0,5.123591423E0,8.443431285E0
4.718218604E0,5.698200226E0,3.696647406E0,4.434061527E0,8.111448051E0
4.723254000E0,5.640739441E0,3.763684988E0,4.050989151E0,7.898973302E0
4.728289396E0,5.516240597E0,3.610456228E0,3.830722809E0,7.624876506E0
4.733324792E0,5.353435040E0,3.390189648E0,3.993528366E0,7.490054832E0
4.738329670E0,5.085284233E0,3.198653460E0,4.328716755E0,7.404680171E0
4.743365066E0,4.970362663E0,2.873042107E0,4.807557106E0,7.488089294E0
4.748400462E0,4.807557106E0,2.566584110E0,5.171475887E0,7.512930332E0
4.753435858E0,4.721365929E0,2.355894566E0,5.506663799E0,7.626590433E0
4.758440736E0,4.663905144E0,2.106897593E0,5.803544998E0,7.737710462E0
4.763476132E0,4.692635536E0,1.819593310E0,5.908889771E0,7.761876475E0
4.768511528E0,4.912901878E0,1.628057122E0,6.004657745E0,7.927363338E0
4.773546923E0,5.114014626E0,1.455674648E0,6.052541733E0,8.056388502E0
4.778551802E0,5.171475887E0,1.302445769E0,6.062118530E0,8.074020616E0
4.783587198E0,5.439626217E0,1.197100878E0,6.263231754E0,8.381566435E0
4.788622594E0,5.679046631E0,9.672574997E-1,6.320692539E0,8.552094006E0
4.793657989E0,5.956773758E0,6.703764796E-1,6.445190907E0,8.801877303E0
4.798662868E0,6.215347767E0,4.022258818E-1,6.454767704E0,8.969746910E0
4.803698264E0,6.483498096E0,2.202665508E-1,6.397306919E0,9.110971449E0
4.808733660E0,6.761225700E0,1.915361360E-2,6.167463779E0,9.151620037E0
4.813769055E0,6.895300865E0,-7.661445439E-2,5.975927353E0,9.124842548E0
4.818804452E0,7.192182064E0,-1.723825186E-1,5.592854977E0,9.112476357E0
4.823809330E0,7.508216381E0,-2.298433632E-1,5.219359875E0,9.147013649E0
4.828844726E0,7.824251175E0,-3.447650373E-1,4.759673119E0,9.164728996E0
4.833880121E0,8.034940720E0,-2.394201756E-1,4.328716755E0,9.129916929E0
4.838915518E0,8.140285492E0,-1.915361360E-2,3.840299606E0,9.000695296E0
4.843920396E0,8.245630264E0,2.968810201E-1,3.189076662E0,8.845833299E0
4.848955792E0,8.350975990E0,4.979939461E-1,2.566584110E0,8.750665801E0
4.853991187E0,8.437167168E0,6.799532771E-1,2.020706177E0,8.702377820E0
4.859026584E0,8.571242332E0,1.005564690E0,1.522712231E0,8.763333156E0
4.864031462E0,8.848969460E0,1.072602391E0,9.481038451E-1,8.964019036E0
4.869066858E0,9.308655739E0,1.101332784E0,3.734954596E-1,9.381018304E0
4.874102253E0,9.921571732E0,1.225831270E0,-4.979939461E-1,1.000940787E1
4.879137649E0,1.044829655E1,1.379060149E0,-1.216254473E0,1.060886340E1
4.884173045E0,1.092713642E1,1.426944256E0,-1.350329757E0,1.110233627E1
4.889177923E0,1.113782597E1,1.369483352E0,-9.959878922E-1,1.126581749E1
4.894213319E0,1.097502041E1,1.407790542E0,-2.968810201E-1,1.106892432E1
4.899248715E0,1.080263805E1,1.369483352E0,7.469909191E-1,1.091469051E1
4.904284111E0,1.072602367E1,1.206677675E0,1.924938202E0,1.096398841E1
4.909288989E0,1.066856289E1,1.130063176E0,3.179499865E0,1.118948150E1
4.914324385E0,1.056321812E1,9.481038451E-1,4.424484730E0,1.149158575E1
4.919359781E0,1.021845245E1,8.619126081E-1,5.363011837E0,1.157244831E1
4.924395177E0,9.787496567E0,7.278373241E-1,6.253654957E0,1.163757004E1
4.929430573E0,9.366117477E0,8.523358107E-1,6.684611320E0,1.153839943E1
4.934435451E0,9.126696587E0,1.024718285E0,6.981492043E0,1.153637158E1
4.939470847E0,8.753201485E0,1.522712231E0,7.489062786E0,1.161995052E1
4.944506243E0,8.418013573E0,2.394201756E0,7.843404770E0,1.175219779E1
4.949541639E0,8.236053467E0,3.552995205E0,8.293514252E0,1.221633048E1
4.954546517E0,8.111555099E0,4.740519524E0,8.580819130E0,1.272400520E1
4.959581913E0,8.149862289E0,5.736507416E0,9.126696587E0,1.351385819E1
4.964617309E0,8.475474358E0,6.406883717E0,9.710882187E0,1.439385485E1
4.969652705E0,8.963891029E0,6.952761650E0,1.045787334E1,1.542917210E1
4.974657583E0,9.691728592E0,7.230489254E0,1.108036518E1,1.640073384E1
4.979692979E0,1.083136845E1,7.287950039E0,1.183693314E1,1.762230814E1
4.984728375E0,1.185608673E1,7.029376030E0,1.258392429E1,1.866370999E1
4.989763771E0,1.261265469E1,6.435614109E0,1.354160500E1,1.959263262E1
4.994768649E0,1.294784260E1,5.430049419E0,1.475785923E1,2.036974408E1
4.999804045E0,1.280419064E1,4.510675907E0,1.611776543E1,2.107310744E1
5.004839441E0,1.236365795E1,3.667917013E0,1.753513336E1,2.176682235E1
5.009874836E0,1.147301483E1,3.150769472E0,1.868435097E1,2.215090040E1
5.014879715E0,1.044829655E1,2.834734917E0,1.972822189E1,2.250345222E1
5.019915111E0,9.136273384E0,2.806004286E0,2.059013367E1,2.270019286E1
5.024950507E0,7.527369976E0,2.873042107E0,2.121262741E1,2.269121485E1
5.029985902E0,5.784391403E0,3.169923067E0,2.174892807E1,2.272715267E1
5.034990781E0,4.118026733E0,3.485957623E0,2.240015030E1,2.304076340E1
5.040026177E0,2.384624958E0,3.763684988E0,2.321417999E1,2.363789148E1
5.045061573E0,7.469909191E-1,4.041412354E0,2.403778458E1,2.438659666E1
5.050096968E0,-6.224924326E-1,4.434061527E0,2.498588943E1,2.538391359E1
5.055101846E0,-1.656787634E0,4.683058739E0,2.576161003E1,2.623616847E1
5.060137243E0,-2.269703150E0,5.018246651E0,2.603933716E1,2.661543596E1
5.065172638E0,-2.518700123E0,5.200206280E0,2.597229958E1,2.660726106E1
5.070208034E0,-2.308010340E0,5.343858242E0,2.547430611E1,2.613090133E1
5.075212912E0,-1.982398987E0,5.449203014E0,2.466985512E1,2.534216784E1
5.080248309E0,-1.647210717E0,5.401319027E0,2.348233032E1,2.415175745E1
5.085283704E0,-1.398213744E0,5.420472622E0,2.205538559E1,2.275470410E1
5.090319100E0,-1.264138460E0,5.200206280E0,2.047521210E1,2.116304567E1
5.095323978E0,-1.206677675E0,4.941632271E0,1.830127716E1,1.899506637E1
5.100359375E0,-1.120486379E0,4.711789131E0,1.654872131E1,1.724287168E1
5.105394770E0,-1.120486379E0,4.520252705E0,1.474828243E1,1.546609223E1
5.110430166E0,-1.177947283E0,4.261679173E0,1.302445698E1,1.375448831E1
5.115435044E0,-1.024718285E0,3.964797974E0,1.122401714E1,1.194772913E1
5.120470441E0,-9.959878922E-1,3.648763418E0,9.442731857E0,1.017205246E1
5.125505836E0,-1.091755986E0,3.342305660E0,7.680599213E0,8.447161803E0
5.130541232E0,-1.063025594E0,3.093308687E0,6.138733387E0,6.955762334E0
5.135576628E0,-1.120486379E0,2.853888512E0,4.625597477E0,5.549443340E0
5.140581507E0,-9.768342972E-1,2.700659513E0,3.208230257E0,4.305869068E0
5.145616902E0,-1.168370485E0,2.710236311E0,1.742978811E0,3.427600559E0
5.150652298E0,-1.149216771E0,2.748543501E0,3.447650373E-1,2.999008752E0
5.155687694E0,-9.481038451E-1,2.834734917E0,-5.650315881E-1,3.042019665E0
5.160692573E0,-2.968810201E-1,2.537853718E0,-9.959878922E-1,2.742413483E0
5.165727968E0,2.011129409E-1,2.269703150E0,-7.852981687E-1,2.410122822E0
5.170763364E0,3.734954596E-1,2.489969730E0,-9.097966552E-1,2.677158581E0
5.175798760E0,3.639186621E-1,2.700659513E0,-1.024718285E0,2.911365000E0
5.180803639E0,2.777273953E-1,2.729389906E0,-1.110909581E0,2.959868555E0
5.185839034E0,8.427590132E-1,2.078166962E0,-7.469909191E-1,2.363686973E0
5.190874430E0,2.873042040E-2,2.059013367E0,-2.394201756E-1,2.073085503E0
5.195909826E0,-4.788403511E-1,1.742978811E0,7.661445141E-1,1.963222003E0
5.200914705E0,-9.864110947E-1,1.522712231E0,1.752555609E0,2.522520673E0
5.205950100E0,-1.465251446E0,1.244984865E0,2.595314741E0,3.229954755E0
5.210985496E0,-1.819593310E0,1.072602391E0,3.418920040E0,4.018757264E0
5.216020892E0,-2.087743998E0,9.576807022E-1,4.137180328E0,4.732027937E0
5.221025771E0,-2.432508945E0,8.236053586E-1,4.941632271E0,5.569125161E0
5.226061166E0,-2.585737944E0,7.661445141E-1,5.717353821E0,6.321483437E0
5.231096561E0,-2.643198729E0,6.799532771E-1,6.387730122E0,6.946361068E0
5.236131958E0,-2.748543501E0,5.746083856E-1,6.694188118E0,7.259257588E0
5.241136836E0,-2.882618904E0,3.639186621E-1,6.789956093E0,7.385487951E0
5.246172232E0,-3.131615877E0,2.873041928E-1,6.493074894E0,7.214539714E0
5.251207627E0,-3.428496838E0,1.436520964E-1,6.110002518E0,7.007664180E0
5.256243024E0,-3.840299606E0,1.819593310E-1,5.544970989E0,6.747422733E0
5.261247902E0,-4.098873138E0,3.160346150E-1,5.104437828E0,6.554076931E0
5.266283298E0,-4.357447147E0,5.746083856E-1,4.721365929E0,6.450489646E0
5.271318693E0,-4.683058739E0,8.714894056E-1,4.165910721E0,6.328139147E0
5.276354090E0,-4.874594688E0,1.292868972E0,3.620033026E0,6.207883912E0
5.281358967E0,-4.836287498E0,1.771709204E0,3.189076662E0,6.057956770E0
5.286394364E0,-4.922478676E0,2.557007313E0,2.786850691E0,6.207706459E0
5.291429759E0,-5.056553841E0,3.438073635E0,2.489969730E0,6.602199355E0
5.296465156E0,-5.008669853E0,4.386177540E0,2.355894566E0,7.062263540E0
5.301470033E0,-4.778826714E0,5.200206280E0,2.394201756E0,7.457314004E0
5.306505430E0,-4.683058739E0,6.502651691E0,2.221819162E0,8.315768068E0
5.311540825E0,-4.730942726E0,7.469909191E0,2.738966703E0,9.256527481E0
5.316576222E0,-4.472368717E0,8.456320763E0,3.840299606E0,1.030821730E1
5.321581099E0,-4.290409565E0,9.327810287E0,5.018246651E0,1.142796826E1
5.326616496E0,-4.309563160E0,9.433155060E0,6.981492043E0,1.250191906E1
5.331651891E0,-4.644751072E0,9.174580574E0,9.452308655E0,1.396756171E1
5.336687288E0,-4.692635536E0,9.126696587E0,1.211466026E1,1.587710339E1
5.341692165E0,-3.916913986E0,9.394847870E0,1.510262394E1,1.821248559E1
5.346727562E0,-2.202665567E0,9.806650162E0,1.813847160E1,2.073707489E1
5.351762957E0,-4.788403213E-2,9.883264542E0,2.024536896E1,2.252900742E1
5.356767836E0,1.704671621E0,9.375694275E0,2.166273689E1,2.366608794E1
5.361803231E0,3.064578056E0,8.312667847E0,2.236184311E1,2.405294395E1
5.366838628E0,3.907337189E0,7.259219646E0,2.272576332E1,2.417486034E1
5.371874023E0,4.050989151E0,6.722918510E0,2.266830254E1,2.398874916E1
5.376878902E0,3.706224203E0,6.933608055E0,2.211284637E1,2.346889416E1
5.381914297E0,3.064578056E0,7.623138428E0,2.119347382E1,2.273031479E1
5.386949694E0,2.413355350E0,8.350975990E0,1.991018105E1,2.172506371E1
5.391985089E0,2.116474390E0,8.906430244E0,1.836831474E1,2.052313207E1
5.396989968E0,2.030282974E0,9.117119789E0,1.659660530E1,1.904445404E1
5.402025363E0,1.915361404E0,9.107542992E0,1.503558636E1,1.768289585E1
5.407060760E0,1.752555609E0,9.050082207E0,1.364694977E1,1.646859669E1
5.412096155E0,1.618480325E0,8.858546257E0,1.259350109E1,1.548191171E1
5.417101033E0,1.608903527E0,8.896853447E0,1.187524033E1,1.492527737E1
5.422136429E0,1.742978811E0,8.839392662E0,1.132936287E1,1.447505789E1
5.427171825E0,1.982398987E0,8.791508675E0,1.085052204E1,1.410511819E1
5.432207221E0,2.355894566E0,8.638279915E0,1.042914295E1,1.374544076E1
5.437212099E0,2.786850691E0,8.312667847E0,1.013226128E1,1.339886943E1
5.442247495E0,3.160346270E0,7.948749542E0,9.969455719E0,1.313622682E1
5.447282891E0,3.591302633E0,7.498639584E0,9.730035782E0,1.279846266E1
5.452318287E0,3.936067581E0,6.952761650E0,9.490615845E0,1.240585796E1
5.457323165E0,4.079719543E0,6.349422932E0,9.232041359E0,1.192433943E1
5.462358561E0,4.367023945E0,5.918466568E0,8.944737434E0,1.158047807E1
5.467393957E0,4.596867085E0,5.430049419E0,8.561665535E0,1.113187946E1
5.472429353E0,4.644751072E0,4.989516258E0,8.283937454E0,1.072812214E1
5.477434231E0,4.683058739E0,4.548983097E0,7.910442352E0,1.025667512E1
5.482469627E0,4.826710701E0,4.232948780E0,7.508216381E0,9.878679304E0
5.487505023E0,4.807557106E0,3.926490784E0,7.038952827E0,9.384923660E0
5.492540419E0,4.817133904E0,3.543418407E0,6.607996464E0,8.912138370E0
5.497545297E0,4.778826714E0,3.284844637E0,6.100425720E0,8.416803610E0
5.502580693E0,4.673481941E0,2.959233284E0,5.698200226E0,7.941535173E0
5.507616089E0,4.539406300E0,2.767697096E0,5.228936672E0,7.457086260E0
5.512651485E0,4.424484730E0,2.662352324E0,4.865017891E0,7.094546081E0
5.517656363E0,4.472368717E0,2.346317768E0,4.414907932E0,6.708107115E0
5.522691759E0,4.443638325E0,2.145204782E0,4.022258759E0,6.366034138E0
5.527727155E0,4.414907932E0,2.078166962E0,3.572149038E0,6.047349727E0
5.532762551E0,4.405331135E0,1.972822189E0,3.208230257E0,5.795835676E0
5.537797946E0,4.376600742E0,1.924938202E0,2.873042107E0,5.578027616E0
5.542802825E0,4.376600742E0,1.857900500E0,2.422932148E0,5.336387216E0
5.547838221E0,4.347870350E0,1.742978811E0,1.972822189E0,5.082713754E0
5.552873617E0,4.347870350E0,1.656787634E0,1.618480325E0,4.926296825E0
5.557909012E0,4.395754337E0,1.493981838E0,1.216254473E0,4.799365882E0
5.562913891E0,4.386177540E0,1.302445769E0,9.385270476E-1,4.670733498E0
5.567949287E0,4.501099110E0,1.063025594E0,6.991068721E-1,4.677463739E0
5.572984683E0,4.539406300E0,7.948749661E-1,6.607996821E-1,4.655608659E0
5.578020078E0,4.625597477E0,5.267243981E-1,4.884171486E-1,4.681040688E0
5.583024957E0,4.711789131E0,2.106897533E-1,4.213795066E-1,4.735283273E0
5.588060353E0,4.711789131E0,-6.703764945E-2,4.692635238E-1,4.735573790E0
5.593095748E0,4.711789131E0,-3.734954596E-1,6.224924326E-1,4.767384241E0
5.598131144E0,4.711789131E0,-6.320692301E-1,8.810662031E-1,4.834950463E0
5.603136022E0,4.673481941E0,-9.193734527E-1,1.379060149E0,4.958678039E0
5.608171419E0,4.625597477E0,-1.072602391E0,1.953668594E0,5.134534924E0
5.613206814E0,4.730942726E0,-1.063025594E0,2.643198729E0,5.522530399E0
5.618242210E0,4.635174274E0,-8.619126081E-1,3.275267839E0,5.740654433E0
5.623277606E0,4.587290287E0,-5.554547906E-1,3.859453201E0,6.020559876E0
5.628282485E0,4.271255970E0,-1.149216816E-1,4.462791920E0,6.178458244E0
5.633317880E0,3.639186621E0,6.799532771E-1,4.903325081E0,6.143989955E0
5.638353276E0,2.940079689E0,1.781286120E0,5.161899090E0,6.201794179E0
5.643388672E0,2.604891539E0,2.978386879E0,5.200206280E0,6.534400790E0
5.648393551E0,2.691082716E0,4.089296341E0,5.276820660E0,7.197854335E0
5.653428946E0,2.949656487E0,4.999093056E0,5.200206280E0,7.793173302E0
5.658464342E0,3.313575268E0,5.707777023E0,4.970362663E0,8.262142858E0
5.663499738E0,3.390189648E0,6.100425720E0,4.663905144E0,8.394080712E0
5.668504617E0,3.256114244E0,5.956773758E0,4.548983097E0,8.171822367E0
5.673540012E0,2.796427488E0,5.382165432E0,4.826710701E0,7.751441648E0
5.678575408E0,2.135627985E0,4.989516258E0,5.209783077E0,7.523165497E0
5.683610804E0,1.848323703E0,5.248090267E0,5.631162167E0,7.916358968E0
5.688615683E0,2.145204782E0,6.272808552E0,5.707777023E0,8.748071172E0
5.693651078E0,3.371036053E0,7.575253963E0,6.052541733E0,1.026555493E1
5.698686474E0,5.525817394E0,8.341399193E0,6.876147270E0,1.214063424E1
5.703721870E0,8.303091049E0,8.743624687E0,8.542511940E0,1.477723939E1
5.708726749E0,1.075475407E1,7.996633530E0,1.066856289E1,1.712977282E1
5.713762144E0,1.250730991E1,6.732495308E0,1.294784260E1,1.921993554E1
5.718797540E0,1.387679291E1,5.688623428E0,1.522712326E1,2.137267182E1
5.723832936E0,1.400129128E1,4.884171486E0,1.741063499E1,2.286966330E1
5.728837815E0,1.316810894E1,4.290409565E0,1.919192123E1,2.366720406E1
5.733873210E0,1.158793640E1,4.108449936E0,2.053267288E1,2.393220188E1
5.738908606E0,9.624691010E0,4.012681961E0,2.120305061E1,2.362849231E1
5.743944002E0,7.900865555E0,4.050989151E0,2.142331696E1,2.319035789E1
5.748948881E0,6.129156113E0,4.050989151E0,2.140416336E1,2.262996414E1
5.753984276E0,4.405331135E0,4.137180328E0,2.105939865E1,2.190939239E1
5.759019672E0,2.853888512E0,4.127603531E0,2.040817451E1,2.101607427E1
5.764055068E0,1.513135433E0,4.175487995E0,1.964203072E1,2.013786606E1
5.769059946E0,3.064578176E-1,4.395754337E0,1.875138855E1,1.926216875E1
5.774095342E0,-6.607996821E-1,4.424484730E0,1.778413010E1,1.833815707E1
5.779130737E0,-1.235408068E0,4.520252705E0,1.698925591E1,1.762366970E1
5.784166134E0,-1.446097851E0,4.414907932E0,1.624226379E1,1.689360069E1
5.789171011E0,-1.589749932E0,4.424484730E0,1.556231117E1,1.625696463E1
5.794206408E0,-1.637633920E0,4.338293552E0,1.491108799E1,1.561547889E1
5.799241803E0,-1.685518026E0,4.271255970E0,1.441309452E1,1.512685996E1
5.804277200E0,-1.685518026E0,4.185064793E0,1.382890892E1,1.454628682E1
5.809282077E0,-1.580173135E0,4.165910721E0,1.323514652E1,1.396498703E1
5.814317474E0,-1.532289028E0,4.060565948E0,1.259350109E1,1.332037444E1
5.819352869E0,-1.493981838E0,3.907337189E0,1.201889229E1,1.272607707E1
5.824388266E0,-1.484405041E0,3.734954596E0,1.134851646E1,1.203919308E1
5.829393143E0,-1.436521053E0,3.610456228E0,1.067813969E1,1.136317095E1
5.834428540E0,-1.426944256E0,3.428496838E0,9.950302124E0,1.062070020E1
5.839463935E0,-1.426944256E0,3.208230257E0,9.241618156E0,9.886173043E0
5.844499332E0,-1.407790542E0,3.016694069E0,8.628703117E0,9.248612588E0
5.849504209E0,-1.350329757E0,2.796427488E0,7.910442352E0,8.498146584E0
5.854539606E0,-1.436521053E0,2.710236311E0,7.259219646E0,7.880688008E0
5.859575001E0,-1.493981838E0,2.614468336E0,6.732495308E0,7.375223352E0
5.864610398E0,-1.570596337E0,2.470816135E0,6.177040577E0,6.835754203E0
5.869615275E0,-1.522712231E0,2.394201756E0,5.679046631E0,6.348419112E0
5.874650672E0,-1.599326730E0,2.260126352E0,5.315127850E0,5.993046068E0
5.879686067E0,-1.618480325E0,2.336740971E0,4.951209068E0,5.709142507E0
5.884690946E0,-1.474828243E0,2.336740971E0,4.644751072E0,5.404552639E0
5.889726341E0,-1.331176162E0,2.269703150E0,4.299986362E0,5.041176954E0
5.894761738E0,-1.139639974E0,2.212242365E0,4.089296341E0,4.786976093E0
5.899797133E0,-9.864110947E-1,2.212242365E0,3.830722809E0,4.532268788E0
5.904832530E0,-6.991068721E-1,2.183511972E0,3.639186621E0,4.301180560E0
5.909837407E0,-4.596867263E-1,2.116474390E0,3.361459255E0,3.998772819E0
5.914872804E0,-1.819593310E-1,1.944091797E0,3.217807055E0,3.763892181E0
5.919908199E0,-1.915361360E-2,1.848323703E0,3.150769472E0,3.652946159E0
5.924943596E0,2.202665508E-1,1.762132406E0,3.208230257E0,3.666929145E0
5.929948473E0,4.022258818E-1,1.561019540E0,3.246537447E0,3.624716963E0
5.934983870E0,4.788403511E-1,1.513135433E0,3.409343243E0,3.760649979E0
5.940019265E0,4.596867263E-1,1.321599364E0,3.725377798E0,3.979494504E0
5.945054661E0,5.075707436E-1,1.244984865E0,4.089296341E0,4.304643997E0
5.950059539E0,3.543418646E-1,1.139639974E0,4.328716755E0,4.490225626E0
5.955094935E0,1.819593310E-1,1.101332784E0,4.606443882E0,4.739764587E0
5.960130331E0,3.830722719E-2,1.168370485E0,5.152322292E0,5.283273799E0
5.965165727E0,-6.703764945E-2,1.168370485E0,5.765237808E0,5.882818255E0
5.970170605E0,9.576806426E-2,1.254561663E0,6.426037312E0,6.548057118E0
5.975206001E0,1.244984865E-1,1.503558636E0,7.010222435E0,7.170732671E0
5.980241397E0,1.532289088E-1,1.762132406E0,7.479485989E0,7.685785605E0
5.985276793E0,8.619125932E-2,1.963245392E0,7.958326340E0,8.197360522E0
5.990281671E0,-1.149216816E-1,2.384624958E0,8.312667847E0,8.648704522E0
5.995317067E0,-4.118026793E-1,2.873042107E0,8.647856712E0,9.121917458E0
6.000352463E0,-7.757213712E-1,3.524264812E0,9.021351814E0,9.716325163E0
6.005387859E0,-1.206677675E0,4.395754337E0,9.308655739E0,1.036483472E1
6.010392737E0,-1.493981838E0,5.439626217E0,9.605537415E0,1.113947324E1
6.015428133E0,-1.781286120E0,6.473921299E0,9.624691010E0,1.173538726E1
6.020463529E0,-1.742978811E0,7.173028469E0,9.959878922E0,1.239715696E1
6.025498924E0,-1.359906554E0,7.354987621E0,1.034295177E1,1.276408399E1
6.030503803E0,-5.171475410E-1,7.010222435E0,1.090798283E1,1.297670025E1
6.035539199E0,2.298433632E-1,6.627150536E0,1.129105568E1,1.309426938E1
6.040574595E0,9.097966552E-1,6.435614109E0,1.154962921E1,1.325287870E1
6.045609990E0,2.097320795E0,6.464344501E0,1.194227791E1,1.374061520E1
6.050614869E0,3.667917013E0,6.368576527E0,1.230619717E1,1.433369704E1
6.055650265E0,5.104437828E0,5.966350555E0,1.277546024E1,1.499549962E1
6.060685661E0,5.985504150E0,5.430049419E0,1.340752983E1,1.565482522E1
6.065721056E0,6.148310184E0,4.711789131E0,1.427901936E1,1.624478589E1
6.070725935E0,5.583278179E0,3.974374771E0,1.516008472E1,1.663721187E1
6.075761331E0,4.663905144E0,3.620033026E0,1.609861183E1,1.714706836E1
6.080796727E0,3.658340216E0,3.438073635E0,1.713290787E1,1.785330041E1
6.085832122E0,2.738966703E0,3.505111217E0,1.785116768E1,1.839706310E1
6.090837001E0,2.135627985E0,3.648763418E0,1.851196671E1,1.898860955E1
6.095872397E0,1.771709204E0,3.543418407E0,1.904826927E1,1.945588162E1
6.100907793E0,1.455674648E0,3.438073635E0,1.909615326E1,1.945770820E1
6.105943188E0,1.024718285E0,3.447650433E0,1.914403725E1,1.947897593E1
6.110978585E0,5.458779931E-1,3.313575268E0,1.917276764E1,1.946465470E1
6.115983463E0,6.703764945E-2,3.371036053E0,1.930684280E1,1.959904480E1
6.121018858E0,-3.926490843E-1,3.418920040E0,1.950795555E1,1.980917760E1
6.126054254E0,-6.416460276E-1,3.371036053E0,1.953668594E1,1.983576798E1
6.131089650E0,-7.182605267E-1,3.428496838E0,1.930684280E1,1.962204545E1
6.136125046E0,-5.650315881E-1,3.495534420E0,1.880884933E1,1.913924855E1
6.141129924E0,-4.309563041E-1,3.620033026E0,1.806185722E1,1.842609695E1
6.146165320E0,-9.576806426E-2,3.734954596E0,1.722867584E1,1.762913295E1
6.151200716E0,2.873041928E-1,3.936067581E0,1.617522621E1,1.664971816E1
6.156236112E0,7.661445141E-1,4.165910721E0,1.501643276E1,1.560240502E1
6.161240990E0,1.110909581E0,4.328716755E0,1.390552330E1,1.460600860E1
6.166276386E0,1.359906554E0,4.414907932E0,1.270842266E1,1.352201037E1
6.171311782E0,1.474828243E0,4.395754337E0,1.123359394E1,1.215283536E1
6.176347178E0,1.436521053E0,4.242525578E0,1.010353088E1,1.105187551E1
6.181382574E0,1.158793569E0,4.146757126E0,9.040505409E0,1.001344772E1
6.186387452E0,1.082179189E0,4.012681961E0,7.958326340E0,8.978178348E0
6.191422848E0,8.044517636E-1,3.907337189E0,7.038952827E0,8.090814758E0
6.196458244E0,8.906430602E-1,3.687070608E0,6.138733387E0,7.216078043E0
6.201493640E0,1.015141487E0,3.495534420E0,5.276820660E0,6.410468734E0
6.206498518E0,1.110909581E0,3.342305660E0,4.721365929E0,5.890367005E0
6.211533914E0,1.139639974E0,3.371036053E0,4.252102375E0,5.544640470E0
6.216569310E0,1.225831270E0,3.160346270E0,3.859453201E0,5.136713916E0
6.221604706E0,1.379060149E0,3.064578056E0,3.572149038E0,4.904456576E0
6.226609584E0,1.436521053E0,2.978386879E0,3.160346270E0,4.574075828E0
6.231644980E0,1.503558636E0,2.777273893E0,2.882618904E0,4.275912838E0
6.236680376E0,1.522712231E0,2.662352324E0,2.662352324E0,4.061390443E0
6.241715772E0,1.541865945E0,2.470816135E0,2.480392933E0,3.825523764E0
6.246751168E0,1.407790542E0,2.355894566E0,2.106897593E0,3.459932207E0
6.251756046E0,1.254561663E0,2.106897593E0,1.857900500E0,3.076481220E0
6.256791442E0,1.110909581E0,1.934514999E0,1.580173135E0,2.733754838E0
6.261826837E0,8.906430602E-1,1.675941229E0,1.359906554E0,2.334816888E0
6.266862234E0,8.044517636E-1,1.522712231E0,1.158793569E0,2.075716193E0
6.271867112E0,6.991068721E-1,1.359906554E0,1.034295082E0,1.846039699E0
6.276902508E0,4.596867263E-1,1.283292055E0,9.097966552E-1,1.638865565E0
6.281937903E0,4.118026793E-1,1.331176162E0,7.182605267E-1,1.567644604E0
6.286973300E0,2.777273953E-1,1.187524080E0,8.331822157E-1,1.477003234E0
6.291978178E0,1.532289088E-1,1.063025594E0,1.130063176E0,1.559020620E0
6.297013573E0,1.436520964E-1,9.864110947E-1,1.388636947E0,1.709372792E0
6.302048969E0,-9.576806426E-2,1.024718285E0,1.436521053E0,1.767147934E0
6.307084365E0,-3.064578176E-1,8.619126081E-1,1.407790542E0,1.678893668E0
6.312089244E0,-6.224924326E-1,8.044517636E-1,1.331176162E0,1.675311745E0
6.317124639E0,-9.481038451E-1,7.757213712E-1,1.254561663E0,1.753445041E0
6.322160035E0,-1.264138460E0,6.703764796E-1,1.197100878E0,1.865610137E0
6.327195431E0,-1.561019540E0,6.991068721E-1,1.053448796E0,2.008802327E0
6.332200310E0,-1.781286120E0,7.182605267E-1,9.097966552E-1,2.125231371E0
6.337235705E0,-1.905784607E0,6.320692301E-1,8.331822157E-1,2.173871911E0
6.342271101E0,-1.867477298E0,6.033388376E-1,7.948749661E-1,2.117384099E0
6.347306497E0,-1.857900500E0,4.501099288E-1,7.852981687E-1,2.066660696E0
6.352341893E0,-1.810016513E0,5.554547906E-1,8.714894056E-1,2.084270516E0
6.357346771E0,-1.733402014E0,5.746083856E-1,1.063025594E0,2.113026444E0
6.362382167E0,-1.599326730E0,8.140285611E-1,1.359906554E0,2.251629260E0
6.367417563E0,-1.273715258E0,9.768342972E-1,1.723825216E0,2.355446705E0
6.372452959E0,-1.024718285E0,1.120486379E0,2.202665567E0,2.675307999E0
6.377457837E0,-5.746083856E-1,1.407790542E0,2.892195702E0,3.267544182E0
6.382493233E0,-1.053448766E-1,1.675941229E0,3.505111217E0,3.886602783E0
6.387528629E0,3.351882398E-1,2.020706177E0,4.328716755E0,4.788882266E0
6.392564025E0,1.101332784E0,2.537853718E0,4.960785866E0,5.680055616E0
6.397568903E0,2.135627985E0,2.920926094E0,6.100425720E0,7.092806927E0
6.402604299E0,2.786850691E0,3.600879431E0,7.029376030E0,8.375261000E0
6.407639695E0,3.332728863E0,4.242525578E0,7.977479935E0,9.630487581E0
6.412675091E0,4.012681961E0,4.874594688E0,8.992621422E0,1.098774453E1
6.417679969E0,4.845864296E0,5.257667065E0,9.979032516E0,1.227625976E1
6.422715365E0,5.554547787E0,5.554547787E0,1.083136845E1,1.338000541E1
6.427750761E0,6.042964935E0,5.583278179E0,1.157835960E1,1.420383158E1
6.432786157E0,6.512228489E0,5.516240597E0,1.198058510E1,1.470960399E1
6.437821553E0,6.991068840E0,5.516240597E0,1.243069553E1,1.529137487E1
6.442826431E0,7.671022415E0,5.324704647E0,1.315853214E1,1.613517997E1
6.447861827E0,8.111555099E0,5.295974255E0,1.308191776E1,1.627824443E1
6.452897223E0,8.657433510E0,5.238513470E0,1.281376743E1,1.632745584E1
6.457932619E0,9.548076630E0,5.190629482E0,1.236365795E1,1.646111903E1
6.462937497E0,1.066856289E1,5.372588634E0,1.201889229E1,1.694510887E1
6.467972893E0,1.178904915E1,5.497087002E0,1.195185471E1,1.766483728E1
6.473008288E0,1.229662037E1,5.640739441E0,1.192312431E1,1.803290624E1
6.478043685E0,1.233492756E1,5.717353821E0,1.204762268E1,1.816545581E1
6.483048562E0,1.209550667E1,5.803544998E0,1.250730991E1,1.834162527E1
6.488083959E0,1.149216843E1,6.014234543E0,1.350329781E1,1.872378177E1
6.493119354E0,1.089840603E1,6.110002518E0,1.484405041E1,1.940240236E1
6.498154750E0,1.024718285E1,6.234501362E0,1.635718536E1,2.028376880E1
6.503190146E0,9.576807022E0,6.330269337E0,1.794693565E1,2.130446061E1
6.508195025E0,9.002198219E0,6.272808552E0,1.924938202E1,2.215685916E1
6.513230420E0,7.661445618E0,6.244078159E0,2.057098007E1,2.282217085E1
6.518265816E0,6.579266071E0,6.119579315E0,2.189258003E1,2.366476396E1
6.523301212E0,5.707777023E0,6.033388138E0,2.293645287E1,2.439387958E1
6.528306091E0,4.730942726E0,6.014234543E0,2.379836464E1,2.499829986E1
6.533341486E0,3.533841610E0,5.966350555E0,2.457408714E1,2.553372543E1
6.538376882E0,2.796427488E0,5.813121796E0,2.517742538E1,2.599067411E1
6.543412278E0,1.896207690E0,5.573701382E0,2.557965088E1,2.624843404E1
6.548417157E0,1.474828243E0,5.142745018E0,2.556049728E1,2.611440151E1
6.553452552E0,1.168370485E0,4.769249916E0,2.530192375E1,2.577398262E1
6.558487948E0,1.120486379E0,4.577713490E0,2.479435349E1,2.523828273E1
6.563523344E0,1.292868972E0,4.529829502E0,2.397074699E1,2.442923611E1
6.568528223E0,1.484405041E0,4.405331135E0,2.302264404E1,2.348728463E1
6.573563618E0,1.398213744E0,4.386177540E0,2.198834801E1,2.246510635E1
6.578599014E0,1.522712231E0,4.357447147E0,2.086786270E1,2.137226455E1
6.583634410E0,1.417367458E0,4.204218388E0,1.954626274E1,2.004347200E1
6.588639289E0,1.264138460E0,4.098873138E0,1.808101082E1,1.858283507E1
6.593674684E0,1.149216771E0,3.974374771E0,1.652956772E1,1.703945313E1
6.598710080E0,1.130063176E0,3.830722809E0,1.505473995E1,1.557551524E1
6.603745476E0,1.101332784E0,3.572149038E0,1.329260826E1,1.380820832E1
6.608780872E0,1.101332784E0,3.342305660E0,1.189439392E1,1.240405368E1
6.613785750E0,1.225831270E0,3.198653460E0,1.064940929E1,1.118677633E1
6.618821146E0,1.599326730E0,3.055001259E0,9.538499832E0,1.014267508E1
6.623856542E0,2.624045134E0,3.160346270E0,8.858546257E0,9.764591297E0
6.628891938E0,2.748543501E0,2.758120298E0,7.948749542E0,8.851233713E0
6.633896816E0,3.457227230E0,2.442085743E0,6.885724068E0,8.082660381E0
6.638932212E0,3.189076662E0,2.499546528E0,5.784391403E0,7.062374014E0
6.643967608E0,2.652775526E0,2.432508945E0,4.970362663E0,6.136678480E0
6.649003003E0,2.365471363E0,2.087743998E0,4.290409565E0,5.325574523E0
6.654007882E0,2.135627985E0,1.714248419E0,3.658340216E0,4.569792957E0
6.659043277E0,1.991975784E0,1.340752959E0,3.122039080E0,3.938618290E0
6.664078674E0,1.695094824E0,1.015141487E0,2.700659513E0,3.346254699E0
6.669114069E0,1.398213744E0,7.374141216E-1,2.413355350E0,2.884972324E0
6.674118948E0,1.082179189E0,4.213795066E-1,2.135627985E0,2.430962644E0
6.679154343E0,8.044517636E-1,1.723825186E-1,2.193088770E0,2.342327203E0
6.684189740E0,5.841852427E-1,-1.915361360E-2,2.126051188E0,2.204933766E0
6.689225135E0,1.149216816E-1,-1.628057212E-1,2.087743998E0,2.097233343E0
6.694260532E0,2.873042040E-2,-3.447650373E-1,1.972822189E0,2.002926798E0
6.699265409E0,-4.788403511E-1,-3.543418646E-1,1.685518026E0,1.787684887E0
6.704300806E0,-7.086837292E-1,-3.256114423E-1,1.503558636E0,1.693795740E0
6.709336201E0,-9.959878922E-1,-3.064578176E-1,1.254561663E0,1.630899519E0
6.714371598E0,-1.072602391E0,-2.873041928E-1,9.385270476E-1,1.453909422E0
6.719376475E0,-1.225831270E0,-2.873041928E-1,6.320692301E-1,1.408800026E0
6.724411872E0,-1.426944256E0,-2.394201756E-1,3.064578176E-1,1.478988953E0
6.729447267E0,-1.618480325E0,-4.788403213E-2,7.661445439E-2,1.621000067E0
6.734482663E0,-1.819593310E0,1.723825186E-1,-2.777273953E-1,1.848720653E0
6.739487541E0,-1.905784607E0,3.926490843E-1,-5.746083856E-1,2.028882221E0
6.744522938E0,-1.972822189E0,6.033388376E-1,-7.565677166E-1,2.197371123E0
6.749558333E0,-1.819593310E0,6.416460276E-1,-6.416460276E-1,2.033307420E0
6.754593729E0,-1.647210717E0,7.374141216E-1,-3.351882398E-1,1.835601779E0
6.759598607E0,-1.465251446E0,8.523358107E-1,2.106897533E-1,1.708165187E0
6.764634004E0,-1.388636947E0,1.043871999E0,7.565677166E-1,1.894828760E0
6.769669399E0,-1.426944256E0,1.235408068E0,1.398213744E0,2.348915639E0
6.774704795E0,-1.149216771E0,1.465251446E0,1.953668594E0,2.698977948E0
6.779709673E0,-1.091755986E0,1.867477298E0,2.614468336E0,3.393353396E0
6.784745070E0,-9.481038451E-1,2.183511972E0,3.323152065E0,4.087782416E0
6.789780465E0,-8.523358107E-1,2.480392933E0,3.926490784E0,4.721880485E0
6.794815861E0,-7.852981687E-1,2.614468336E0,4.548983097E0,5.305222438E0
6.799820739E0,-8.140285611E-1,2.844311714E0,5.248090267E0,6.024550031E0
6.804856136E0,-1.015141487E0,2.997540474E0,5.832275391E0,6.635600754E0
6.809891531E0,-1.331176162E0,3.150769472E0,6.157886982E0,7.044071999E0
6.814926926E0,-1.589749932E0,3.275267839E0,6.311115742E0,7.285936191E0
6.819931805E0,-1.915361404E0,3.438073635E0,6.234501362E0,7.372785556E0
6.824967201E0,-2.451662540E0,3.629609823E0,6.129156113E0,7.533343968E0
6.830002597E0,-2.700659513E0,3.763684988E0,5.995080948E0,7.576270987E0
6.835037992E0,-3.064578056E0,3.926490784E0,5.880159378E0,7.706182119E0
6.840073389E0,-3.332728863E0,4.156333923E0,5.707777023E0,7.807746916E0
6.845078267E0,-3.639186621E0,4.252102375E0,5.430049419E0,7.798044022E0
6.850113663E0,-3.888183594E0,4.443638325E0,5.056553841E0,7.773842677E0
6.855149058E0,-4.165910721E0,4.644751072E0,4.750096321E0,7.841679649E0
6.860184455E0,-4.414907932E0,4.759673119E0,4.520252705E0,7.910662726E0
6.865189333E0,-4.702212334E0,5.027823448E0,4.347870350E0,8.142099609E0
6.870224729E0,-5.085284233E0,5.171475887E0,4.232948780E0,8.397745767E0
6.875260124E0,-5.401319027E0,5.334281445E0,4.319139957E0,8.734058377E0
6.880295521E0,-5.707777023E0,5.468356609E0,4.625597477E0,9.158482111E0
6.885300399E0,-5.966350555E0,5.497087002E0,5.161899090E0,9.615638651E0
6.890335795E0,-6.042964935E0,5.640739441E0,5.928043365E0,1.017236771E1
6.895371190E0,-6.110002518E0,5.726930618E0,6.914454460E0,1.085999749E1
6.900406587E0,-6.100425720E0,5.937620163E0,7.738059998E0,1.150426441E1
6.905411465E0,-6.090848923E0,6.033388138E0,8.178592682E0,1.184861136E1
6.910446861E0,-6.062118530E0,6.167463779E0,8.303091049E0,1.198867013E1
6.915482256E0,-6.110002518E0,6.282385349E0,8.437167168E0,1.216496142E1
6.920517653E0,-6.138733387E0,6.502651691E0,8.207323074E0,1.213790256E1
6.925522531E0,-6.033388138E0,6.675034523E0,8.025363922E0,1.205671284E1
6.930557927E0,-5.937620163E0,6.981492043E0,7.766790390E0,1.201330917E1
6.935593322E0,-6.023811340E0,7.240066051E0,7.412448406E0,1.198537654E1
6.940628719E0,-5.774814606E0,7.671022415E0,6.761225700E0,1.174339140E1
6.945633597E0,-4.855441093E0,8.226476669E0,6.349422932E0,1.147019608E1
6.950668993E0,-3.591302633E0,8.906430244E0,6.100425720E0,1.137704480E1
6.955704388E0,-2.365471363E0,9.528923035E0,6.224924564E0,1.162521031E1
6.960739785E0,-1.790862918E0,9.710882187E0,6.818686485E0,1.200012118E1
6.965744663E0,-2.116474390E0,9.203310966E0,7.690176010E0,1.217863718E1
6.970780059E0,-3.141192675E0,8.504204750E0,8.437167168E0,1.238444103E1
6.975815454E0,-4.836287498E0,7.795520782E0,9.844957352E0,1.345670860E1
6.980850851E0,-6.244078159E0,7.268796444E0,1.138682365E1,1.488232733E1
6.985855729E0,-7.479485989E0,6.646304131E0,1.291911221E1,1.634073222E1
6.990891125E0,-8.398859978E0,6.014234543E0,1.436521053E1,1.769381643E1
6.995926520E0,-9.030928612E0,5.305551052E0,1.567723274E1,1.885423480E1
7.000961916E0,-9.346963882E0,4.644751072E0,1.673068237E1,1.971941122E1
7.005966794E0,-9.279925346E0,3.964797974E0,1.794693565E1,2.058953950E1
7.011002190E0,-9.011775017E0,3.485957623E0,1.912488365E1,2.142720617E1
7.016037586E0,-8.370129585E0,2.920926094E0,2.027409935E1,2.212758421E1
7.021072982E0,-7.872135162E0,2.738966703E0,2.095405388E1,2.255093844E1
7.026108378E0,-7.594407558E0,3.055001259E0,2.215115356E1,2.361528452E1
7.031113256E0,-6.675034523E0,3.265691042E0,2.316629601E1,2.432895589E1
7.036148652E0,-5.516240597E0,3.236960649E0,2.361640549E1,2.446715007E1
7.041184048E0,-4.510675907E0,3.256114244E0,2.324291039E1,2.389940084E1
7.046219444E0,-3.936067581E0,3.428496838E0,2.266830254E1,2.326153818E1
7.051224322E0,-3.936067581E0,3.620033026E0,2.201707840E1,2.265720654E1
7.056259718E0,-4.070142746E0,3.849876404E0,2.131797218E1,2.204185900E1
7.061295114E0,-4.223371983E0,3.974374771E0,2.063801956E1,2.143735938E1
7.066330510E0,-4.347870350E0,3.811569214E0,1.993891144E1,2.076035226E1
7.071335388E0,-4.204218388E0,3.572149038E0,1.926853561E1,2.004275844E1
7.076370784E0,-4.022258759E0,3.409343243E0,1.869392776E1,1.942331388E1
7.081406180E0,-3.878606796E0,3.409343243E0,1.807143402E1,1.879478490E1
7.086441576E0,-3.792415380E0,3.371036053E0,1.754471016E1,1.826371137E1
7.091476971E0,-3.562572241E0,3.438073635E0,1.712333107E1,1.782472267E1
7.096481850E0,-3.064578056E0,3.524264812E0,1.656787491E1,1.721355745E1
7.101517246E0,-2.518700123E0,3.543418407E0,1.595495987E1,1.653663838E1
7.106552642E0,-2.039859772E0,3.476380825E0,1.520796967E1,1.573304144E1
7.111588037E0,-1.465251446E0,3.524264812E0,1.439394093E1,1.489137131E1
7.116592916E0,-1.015141487E0,3.514688015E0,1.352245140E1,1.400857723E1
7.121628312E0,-7.182605267E-1,3.457227230E0,1.264138508E1,1.312527847E1
7.126663708E0,-4.405331016E-1,3.428496838E0,1.176989555E1,1.226699235E1
7.131699103E0,0.000000000E0,3.332728863E0,1.094629002E1,1.144239253E1
7.136703982E0,2.585737705E-1,3.179499865E0,1.052491093E1,1.099771930E1
7.141739378E0,5.171475410E-1,3.035847664E0,1.035252857E1,1.080086388E1
7.146774774E0,7.565677166E-1,2.920926094E0,1.010353088E1,1.054445543E1
7.151810169E0,1.015141487E0,2.700659513E0,9.921571732E0,1.033255340E1
7.156815048E0,1.417367458E0,2.375048161E0,9.835380554E0,1.021687305E1
7.161850444E0,1.829170108E0,2.145204782E0,9.883264542E0,1.027748436E1
7.166885840E0,2.432508945E0,1.944091797E0,9.797073364E0,1.028004082E1
7.171921235E0,3.064578056E0,1.752555609E0,9.567230225E0,1.019779309E1
7.176956631E0,3.562572241E0,1.771709204E0,9.136273384E0,9.965057241E0
7.181961510E0,4.003105164E0,1.877054095E0,8.676587105E0,9.738138776E0
7.186996905E0,4.434061527E0,1.934514999E0,8.121131897E0,9.452832020E0
7.192032301E0,4.663905144E0,2.078166962E0,7.661445618E0,9.206983114E0
7.197067697E0,4.769249916E0,2.173935175E0,7.029376030E0,8.768344557E0
7.202072576E0,4.826710701E0,2.260126352E0,6.445190907E0,8.363360159E0
7.207107971E0,4.769249916E0,2.202665567E0,5.698200226E0,7.750288135E0
7.212143367E0,4.807557106E0,2.308010340E0,5.171475887E0,7.428571862E0
7.217178763E0,4.778826714E0,2.317587137E0,4.405331135E0,6.900386750E0
7.222183642E0,4.836287498E0,2.375048161E0,3.552995205E0,6.454014678E0
7.227219037E0,4.922478676E0,2.308010340E0,2.729389906E0,6.083360691E0
7.232254433E0,4.865017891E0,2.308010340E0,1.695094824E0,5.645233146E0
7.237289829E0,4.845864296E0,2.231395960E0,9.385270476E-1,5.416859027E0
7.242294707E0,4.788403511E0,2.154781580E0,2.106897533E-1,5.255119600E0
7.247330103E0,4.702212334E0,2.126051188E0,-4.118026793E-1,5.176917609E0
7.252365499E0,4.568136692E0,2.078166962E0,-7.661445141E-1,5.076773402E0
7.257400895E0,4.577713490E0,2.154781580E0,-9.672574997E-1,5.151129150E0
7.262436291E0,4.338293552E0,2.183511972E0,-1.072602391E0,4.973830654E0
7.267441169E0,4.089296341E0,1.963245392E0,-9.097966552E-1,4.626489705E0
7.272476565E0,3.734954596E0,1.896207690E0,-5.746083856E-1,4.227962184E0
7.277511961E0,3.476380825E0,1.570596337E0,-4.788403213E-2,3.815008437E0
7.282547357E0,3.045424461E0,1.187524080E0,5.937620401E-1,3.322254799E0
7.287552235E0,2.777273893E0,8.523358107E-1,1.273715258E0,3.172077737E0
7.292587631E0,2.604891539E0,5.458779931E-1,2.078166962E0,3.376717434E0
7.297623027E0,2.480392933E0,3.926490843E-1,2.710236311E0,3.694848206E0
7.302658423E0,2.432508945E0,5.075707436E-1,3.447650433E0,4.249826036E0
7.307663301E0,2.470816135E0,8.044517636E-1,4.089296341E0,4.845040720E0
7.312698697E0,2.624045134E0,8.140285611E-1,4.587290287E0,5.347100854E0
7.317734093E0,2.796427488E0,8.714894056E-1,5.123591423E0,5.901753091E0
7.322769489E0,3.150769472E0,7.374141216E-1,5.449203014E0,6.337581664E0
7.327774367E0,3.801992416E0,5.746083856E-1,5.659893036E0,6.842492989E0
7.332809763E0,4.625597477E0,5.841852427E-1,5.669469833E0,7.340321015E0
7.337845159E0,5.554547787E0,5.075707436E-1,5.420472622E0,7.777670128E0
7.342880554E0,6.512228489E0,7.182605267E-1,5.085284233E0,8.293680354E0
7.347915950E0,7.211335659E0,9.481038451E-1,4.922478676E0,8.782542867E0
7.352920828E0,7.785943985E0,1.331176162E0,4.740519524E0,9.212246147E0
7.357956225E0,8.121131897E0,1.781286120E0,4.960785866E0,9.681691998E0
7.362991620E0,8.283937454E0,2.470816135E0,5.343858242E0,1.016294116E1
7.368027016E0,8.236053467E0,3.294421434E0,6.042964935E0,1.073327604E1
7.373031894E0,8.322244644E0,4.137180328E0,6.742072105E0,1.148179225E1
7.378067291E0,8.552088737E0,5.018246651E0,7.192182064E0,1.224942872E1
7.383102686E0,9.117119789E0,5.851428986E0,7.642292023E0,1.325766653E1
7.388138082E0,9.710882187E0,6.751648903E0,7.920019150E0,1.423420876E1
7.393173478E0,1.048660374E1,7.374141216E0,7.881711960E0,1.504886042E1
7.398178357E0,1.120486355E1,8.082824707E0,7.766790390E0,1.584941814E1
7.403213752E0,1.163582039E1,8.590395927E0,7.680599213E0,1.637616630E1
7.408249148E0,1.199973869E1,8.896853447E0,7.450755596E0,1.669315695E1
7.413284544E0,1.191354752E1,9.184157372E0,7.699752808E0,1.689874416E1
7.418289423E0,1.178904915E1,9.548076630E0,8.331821442E0,1.730799514E1
7.423324818E0,1.115697956E1,9.730035782E0,9.270348549E0,1.746685866E1
7.428360214E0,9.959878922E0,9.337387085E0,1.033337498E1,1.712205082E1
7.433395610E0,8.101978302E0,8.398859978E0,1.222000504E1,1.689708331E1
7.438400489E0,5.592854977E0,6.761225700E0,1.408748245E1,1.659672744E1
7.443435884E0,4.453215122E0,5.525817394E0,1.636676216E1,1.783918962E1
7.448471280E0,3.945644379E0,4.644751072E0,1.852154350E1,1.949844598E1
7.453506676E0,3.457227230E0,4.232948780E0,2.041775131E1,2.113657598E1
7.458511555E0,2.987963676E0,4.022258759E0,2.180638885E1,2.237465279E1
7.463546950E0,2.365471363E0,4.079719543E0,2.284068489E1,2.332244525E1
7.468582346E0,1.474828243E0,4.347870350E0,2.338656235E1,2.383296862E1
7.473617742E0,3.351882398E-1,4.434061527E0,2.349190712E1,2.390905588E1
7.478653138E0,-5.746083856E-1,4.252102375E0,2.312798882E1,2.352263625E1
7.483658016E0,-1.455674648E0,3.849876404E0,2.279280090E1,2.316144015E1
7.488693412E0,-2.250549555E0,3.351882458E0,2.240015030E1,2.276108132E1
7.493728808E0,-3.332728863E0,2.930502892E0,2.177765846E1,2.222524099E1
7.498764204E0,-4.548983097E0,2.758120298E0,2.105939865E1,2.172092876E1
7.503769082E0,-5.908889771E0,2.777273893E0,1.988145065E1,2.092606768E1
7.508804478E0,-7.163451672E0,2.786850691E0,1.876096535E1,2.027450116E1
7.513839874E0,-7.891288757E0,3.093308687E0,1.766920853E1,1.959698770E1
7.518875269E0,-8.532935143E0,3.313575268E0,1.662533569E1,1.897873942E1
7.523880148E0,-8.963891029E0,3.639186621E0,1.547612000E1,1.825117289E1
7.528915543E0,-9.404424667E0,3.955221176E0,1.440351772E1,1.765073088E1
7.533950940E0,-9.605537415E0,4.127603531E0,1.319683933E1,1.683627121E1
7.538986335E0,-9.844957352E0,4.299986362E0,1.203804588E1,1.613467126E1
7.543991214E0,-1.009395409E1,4.568136692E0,1.094629002E1,1.557488514E1
7.549026609E0,-1.025675964E1,4.721365929E0,9.873687744E0,1.499940413E1
7.554062006E0,-1.024718285E1,4.817133904E0,8.925583839E0,1.441789105E1
7.559097401E0,-1.012268448E1,4.807557106E0,8.082824707E0,1.381714159E1
7.564102280E0,-9.883264542E0,4.711789131E0,7.249642849E0,1.313153442E1
7.569137675E0,-9.567230225E0,4.750096321E0,6.655880928E0,1.258554966E1
7.574173072E0,-8.954314232E0,4.673481941E0,5.966350555E0,1.173109184E1
7.579208467E0,-8.283937454E0,4.596867085E0,5.257667065E0,1.083502975E1
7.584213346E0,-7.709329605E0,4.520252705E0,4.730942726E0,1.011178849E1
7.589248741E0,-6.924031258E0,4.395754337E0,4.012681961E0,9.130524715E0
7.594284138E0,-6.100425720E0,4.137180328E0,3.342305660E0,8.093359140E0
7.599319533E0,-5.535394192E0,3.878606796E0,2.557007313E0,7.226511325E0
7.604324412E0,-5.200206280E0,3.744531393E0,1.915361404E0,6.688218748E0
7.609359807E0,-4.960785866E0,3.505111217E0,1.522712231E0,6.262096581E0
7.614395204E0,-4.912901878E0,3.361459255E0,1.426944256E0,6.121452695E0
7.619430599E0,-4.979939461E0,3.246537447E0,1.264138460E0,6.077651559E0
7.624435478E0,-5.276820660E0,3.150769472E0,1.168370485E0,6.255979071E0
7.629470873E0,-5.506663799E0,3.112462282E0,1.043871999E0,6.410962206E0
7.634506270E0,-5.774814606E0,3.045424461E0,8.331822157E-1,6.581586928E0
7.639541665E0,-6.042964935E0,2.959233284E0,7.757213712E-1,6.773199427E0
7.644546544E0,-6.301538944E0,2.949656487E0,7.469909191E-1,6.997704044E0
7.649581939E0,-6.799532890E0,3.093308687E0,6.895300746E-1,7.501843632E0
7.654617336E0,-7.240066051E0,3.275267839E0,7.278373241E-1,7.979704444E0
7.659652731E0,-7.508216381E0,3.418920040E0,1.101332784E0,8.323176159E0
7.664657610E0,-7.709329605E0,3.533841610E0,1.589749932E0,8.628389440E0
7.669693005E0,-7.785943985E0,3.639186621E0,2.135627985E0,8.855817855E0
7.674728402E0,-7.718906403E0,3.600879431E0,2.624045134E0,8.912545180E0
7.679763797E0,-7.709329605E0,3.418920040E0,3.380612850E0,9.085775721E0
7.684768676E0,-7.805097580E0,3.112462282E0,3.983951569E0,9.299399969E0
7.689804071E0,-7.948749542E0,2.968810081E0,4.616020679E0,9.659404718E0
7.694839467E0,-8.188169479E0,2.873042107E0,5.142745018E0,1.008703706E1
7.699874863E0,-8.255207062E0,2.901772499E0,5.803544998E0,1.049999342E1
7.704879741E0,-8.226476669E0,3.131615877E0,6.358999729E0,1.085904296E1
7.709915137E0,-8.025363922E0,3.418920040E0,7.134721279E0,1.126941560E1
7.714950532E0,-7.757213593E0,3.811569214E0,7.852981567E0,1.167783122E1
7.719985929E0,-7.498639584E0,4.223371983E0,8.810662270E0,1.231642140E1
7.724990807E0,-7.527369976E0,4.587290287E0,1.010353088E1,1.340842523E1
7.730026203E0,-7.795520782E0,5.363011837E0,1.139640045E1,1.481249417E1
7.735061598E0,-8.236053467E0,5.995080948E0,1.241154194E1,1.605677258E1
7.740096995E0,-8.609549522E0,6.416460514E0,1.319683933E1,1.701328531E1
7.745101873E0,-8.475474358E0,6.675034523E0,1.355118179E1,1.732120895E1
7.750137269E0,-7.718906403E0,6.684611320E0,1.392467690E1,1.726737303E1
7.755172664E0,-6.291962147E0,6.177040577E0,1.454716969E1,1.701072496E1
7.760208061E0,-4.711789131E0,5.487510204E0,1.529416084E1,1.691818787E1
7.765212939E0,-3.993528366E0,5.027823448E0,1.643379974E1,1.764361220E1
7.770248335E0,-4.807557106E0,5.353435040E0,1.758301735E1,1.899827285E1
7.775283730E0,-6.138733387E0,6.062118530E0,1.939303398E1,2.122552934E1
7.780319127E0,-6.684611320E0,6.071695328E0,2.211284637E1,2.388571723E1
7.785324005E0,-5.305551052E0,4.663905144E0,2.507208061E1,2.604822661E1
7.790359401E0,-3.964797974E0,2.662352324E0,2.851015472E1,2.890738081E1
7.795394796E0,-2.604891539E0,6.991068721E-1,3.171838379E1,3.183284594E1
7.800430193E0,-1.398213744E0,-7.757213712E-1,3.419877625E1,3.423613649E1
7.805435071E0,-4.692635238E-1,-1.522712231E0,3.594175720E1,3.597705896E1
7.810470467E0,2.681505978E-1,-1.541865945E0,3.671747589E1,3.675081348E1
7.815505862E0,1.264138460E0,-1.015141487E0,3.620032883E1,3.623661636E1
7.820541259E0,2.557007313E0,-3.830722570E-1,3.448608017E1,3.458286796E1
7.825546137E0,4.079719543E0,0.000000000E0,3.207272720E1,3.233116054E1
7.830581533E0,5.688623428E0,3.830722570E-1,2.900814819E1,2.956315008E1
7.835616928E0,7.326257229E0,6.512228847E-1,2.575203323E1,2.678181009E1
7.840652325E0,8.676587105E0,1.015141487E0,2.196919441E1,2.364231755E1
7.845657203E0,1.003649330E1,1.532289028E0,1.904826927E1,2.158507979E1
7.850692599E0,1.085052204E1,2.078166962E0,1.653914452E1,1.988959295E1
7.855727994E0,1.129105568E1,2.643198729E0,1.428859615E1,1.840213080E1
7.860763391E0,1.135809326E1,3.093308687E0,1.218169785E1,1.694014768E1
7.865768269E0,1.118570995E1,3.438073635E0,1.036210537E1,1.563053694E1
7.870803665E0,1.105163479E1,3.524264812E0,8.705317497E0,1.450315920E1
7.875839060E0,1.091755962E1,3.696647406E0,7.173028469E0,1.357610576E1
7.880874456E0,1.073560047E1,3.916913986E0,5.956773758E0,1.288714422E1
7.885909852E0,1.047702694E1,4.031835556E0,4.941632271E0,1.226554202E1
7.890914730E0,1.013226128E1,4.098873138E0,4.165910721E0,1.169693514E1
7.895950126E0,9.452308655E0,4.118026733E0,3.763684988E0,1.097586478E1
7.900985522E0,8.887276649E0,4.070142746E0,3.476380825E0,1.037472756E1
7.906020918E0,8.331821442E0,3.955221176E0,3.380612850E0,9.823012080E0
7.911025796E0,7.709329605E0,3.849876404E0,3.236960649E0,9.205065211E0
7.916061192E0,7.125144482E0,3.897760391E0,3.131615877E0,8.704437831E0
7.921096588E0,6.579266071E0,3.773261786E0,3.035847664E0,8.169493104E0
7.926131984E0,6.023811340E0,3.725377798E0,2.987963676E0,7.687175667E0
7.931136862E0,5.717353821E0,3.581725836E0,2.901772499E0,7.344193510E0
7.936172258E0,5.334281445E0,3.572149038E0,2.796427488E0,7.002486271E0
7.941207654E0,5.027823448E0,3.399766445E0,2.834734917E0,6.698741864E0
7.946243050E0,4.769249916E0,3.313575268E0,2.786850691E0,6.441433271E0
7.951247928E0,4.644751072E0,3.131615877E0,2.671929121E0,6.206443084E0
7.956283324E0,4.644751072E0,3.035847664E0,2.557007313E0,6.109694751E0
7.961318720E0,4.683058739E0,2.892195702E0,2.509123325E0,6.049093733E0
7.966354116E0,4.941632271E0,2.662352324E0,2.442085743E0,6.121407695E0
7.971358994E0,5.104437828E0,2.346317768E0,2.394201756E0,6.106774489E0
7.976394390E0,5.439626217E0,2.202665567E0,2.365471363E0,6.327457922E0
7.981429786E0,5.535394192E0,2.011129379E0,2.403778553E0,6.361083364E0
7.986465182E0,5.851428986E0,1.695094824E0,2.451662540E0,6.566827000E0
7.991470060E0,5.947196960E0,1.503558636E0,2.662352324E0,6.687148881E0
7.996505456E0,6.119579315E0,1.283292055E0,2.959233284E0,6.917597207E0
8.001540852E0,6.186617374E0,1.158793569E0,3.428496838E0,7.167400340E0
8.006576248E0,6.205770969E0,1.120486379E0,3.801992416E0,7.363574498E0
8.011581126E0,6.196194172E0,1.139639974E0,4.060565948E0,7.495318359E0
8.016616522E0,6.110002518E0,1.197100878E0,4.290409565E0,7.561269438E0
8.021651918E0,6.052541733E0,1.302445769E0,4.405331135E0,7.598458318E0
8.026687314E0,6.062118530E0,1.379060149E0,4.414907932E0,7.625122951E0
8.031692192E0,5.947196960E0,1.532289028E0,4.453215122E0,7.586052088E0
8.036727588E0,5.841852188E0,1.714248419E0,4.510675907E0,7.577076070E0
8.041762984E0,5.544970989E0,1.953668594E0,4.520252705E0,7.415942877E0
8.046798380E0,5.372588634E0,2.317587137E0,4.520252705E0,7.393821968E0
8.051803258E0,5.401319027E0,2.873042107E0,4.357447147E0,7.511056105E0
8.056838653E0,5.516240597E0,3.332728863E0,4.127603531E0,7.653306665E0
8.061874050E0,5.899312973E0,3.897760391E0,3.897760391E0,8.073844542E0
8.066909445E0,6.445190907E0,4.232948780E0,3.744531393E0,8.572039229E0
8.071944841E0,7.096413612E0,4.817133904E0,3.610456228E0,9.305872306E0
8.076949719E0,7.546523571E0,5.343858242E0,3.514688015E0,9.892414809E0
8.081985116E0,7.651868820E0,5.937620163E0,3.246537447E0,1.021501028E1
8.087020511E0,8.054094315E0,6.387730122E0,2.767697096E0,1.064573523E1
8.092055907E0,8.628703117E0,7.105990410E0,2.250549555E0,1.140239407E1
8.097060785E0,9.260771751E0,7.603984833E0,1.896207690E0,1.213169742E1
8.102096182E0,1.010353088E1,7.843404770E0,1.838746905E0,1.292212540E1
8.107131577E0,1.104205799E1,8.034940720E0,2.212242365E0,1.383406424E1
8.112166973E0,1.223915863E1,8.360552788E0,3.083731890E0,1.513952606E1
8.117171851E0,1.361821938E1,8.657433510E0,4.261679173E0,1.669038536E1
8.122207248E0,1.462378407E1,8.762778282E0,5.631162167E0,1.795414523E1
8.127334196E0,1.476743603E1,8.552088737E0,6.924031258E0,1.841623190E1
8.132247522E0,1.367568016E1,7.757213593E0,8.437167168E0,1.784332874E1
8.137282917E0,1.173158836E1,6.550535679E0,9.979032516E0,1.673680893E1
8.142318314E0,9.308655739E0,5.468356609E0,1.163582039E1,1.587281676E1
8.147323191E0,6.761225700E0,4.730942726E0,1.317768574E1,1.554822798E1
8.152358588E0,4.376600742E0,4.510675907E0,1.478658962E1,1.606686229E1
8.157393983E0,2.461239338E0,4.558559895E0,1.635718536E1,1.715796260E1
8.162429380E0,1.302445769E0,4.826710701E0,1.778413010E1,1.847346163E1
8.167464775E0,5.841852427E-1,4.999093056E0,1.865562057E1,1.932263913E1
8.172469654E0,3.256114423E-1,5.104437828E0,1.885673332E1,1.953810891E1
8.177505049E0,8.619125932E-2,5.152322292E0,1.863646698E1,1.933576364E1
8.182540446E0,-4.788403213E-2,5.037400246E0,1.795651245E1,1.864977302E1
8.187575841E0,-4.788403213E-2,4.874594688E0,1.693179512E1,1.761958150E1
8.192580720E0,-1.915361360E-2,4.587290287E0,1.553358078E1,1.619678150E1
8.197616115E0,5.746083856E-1,4.223371983E0,1.412578964E1,1.475482900E1
8.202651512E0,1.225831270E0,3.945644379E0,1.264138508E1,1.329945069E1
8.207686907E0,1.915361404E0,3.715801001E0,1.108994198E1,1.185169184E1
8.212691786E0,2.269703150E0,3.715801001E0,9.691728592E0,1.062489212E1
8.217727181E0,1.790862918E0,3.916913986E0,8.082824707E0,9.158682242E0
8.222762577E0,8.427590132E-1,4.204218388E0,6.493074894E0,7.781112811E0
8.227797973E0,-4.405331016E-1,4.625597477E0,5.544970989E0,7.234426356E0
8.232833368E0,-2.068590164E0,4.970362663E0,4.759673119E0,7.185962599E0
8.237838247E0,-3.763684988E0,5.161899090E0,4.127603531E0,7.605763460E0
8.242873642E0,-5.171475887E0,5.353435040E0,3.677493811E0,8.302252122E0
8.247909039E0,-5.899312973E0,5.200206280E0,3.457227230E0,8.590486542E0
8.252905388E0,-6.062118530E0,5.008669853E0,3.208230257E0,8.492867369E0
8.257940780E0,-5.995080948E0,4.750096321E0,2.873042107E0,8.170604725E0
8.262976171E0,-5.746084213E0,4.319139957E0,2.719813108E0,7.685690412E0
8.268011561E0,-5.477933407E0,3.936067581E0,2.825158119E0,7.313132079E0
8.273046953E0,-5.315127850E0,3.581725836E0,3.074155092E0,7.108429753E0
8.278082344E0,-5.248090267E0,3.457227230E0,3.150769472E0,7.030093871E0
8.283117736E0,-5.133168221E0,3.323152065E0,3.217807055E0,6.909923145E0
8.288122608E0,-5.372588634E0,3.217807055E0,3.122039080E0,6.997579502E0
8.293158000E0,-5.669469833E0,3.035847664E0,2.978386879E0,7.087315968E0
8.298193391E0,-5.784391403E0,2.767697096E0,3.064578056E0,7.107106991E0
8.303228783E0,-6.368576527E0,2.595314741E0,3.208230257E0,7.588620887E0
8.308233655E0,-7.173028469E0,2.528276920E0,3.323152065E0,8.299871159E0
8.313269047E0,-7.843404770E0,2.461239338E0,3.332728863E0,8.870387767E0
8.318304438E0,-7.958326340E0,2.288856745E0,3.179499865E0,8.870346257E0
8.323339830E0,-7.747636795E0,1.896207690E0,3.112462282E0,8.562061724E0
8.328375220E0,-7.038952827E0,1.541865945E0,3.313575268E0,7.931203475E0
8.333380094E0,-6.205770969E0,1.331176162E0,4.003105164E0,7.503897271E0
8.338415485E0,-5.784391403E0,1.465251446E0,4.721365929E0,7.609036860E0
8.343450877E0,-5.554547787E0,1.503558636E0,5.516240597E0,7.971361239E0
8.348486267E0,-5.525817394E0,1.618480325E0,6.330269337E0,8.557245252E0
8.353521658E0,-5.535394192E0,1.589749932E0,6.770802498E0,8.888850329E0
8.358526532E0,-5.439626217E0,1.656787634E0,7.354987621E0,9.296790928E0
8.363561924E0,-5.171475887E0,1.302445769E0,8.121131897E0,9.715622014E0
8.368597315E0,-4.912901878E0,8.427590132E-1,8.255207062E0,9.643406621E0
8.373632705E0,-4.510675907E0,7.182605267E-1,7.843404770E0,9.076403126E0
8.378637579E0,-4.089296341E0,4.405331016E-1,7.805097580E0,8.822469167E0
8.383672971E0,-3.725377798E0,8.044517636E-1,6.215347767E0,7.290825073E0
8.388708362E0,-2.978386879E0,1.379060149E0,8.485051155E0,9.097729849E0
8.393743752E0,-2.997540474E0,1.704671621E0,9.366117477E0,9.980747008E0
8.398779144E0,-3.390189648E0,2.078166962E0,8.887276649E0,9.736316039E0
8.403784018E0,-4.481945515E0,2.537853718E0,9.021351814E0,1.038813389E1
8.408819409E0,-6.129156113E0,3.007117271E0,1.083136845E1,1.280343123E1
8.413854799E0,-6.732495308E0,3.974374771E0,1.322556973E1,1.536352311E1
8.418890191E0,-6.435614109E0,4.884171486E0,1.353202820E1,1.576033144E1
8.423925582E0,-6.330269337E0,5.793968201E0,1.274672985E1,1.536624545E1
8.428930456E0,-5.975927353E0,6.387730122E0,1.273715305E1,1.545153299E1
8.433965846E0,-5.209783077E0,6.617573261E0,1.336922264E1,1.580095660E1
8.439001238E0,-3.045424461E0,6.780379295E0,1.418325043E1,1.601289312E1
8.444036629E0,-2.873041928E-1,7.326257229E0,1.560061836E1,1.723762982E1
8.449072020E0,1.781286120E0,8.370129585E0,1.668279839E1,1.874960830E1
8.454076894E0,3.294421434E0,9.586383820E0,1.719036865E1,1.995647117E1
8.459112285E0,5.161899090E0,1.013226128E1,1.718079185E1,2.060309514E1
8.464147676E0,7.527369976E0,9.921571732E0,1.661575890E1,2.076493024E1
8.469183067E0,9.643844604E0,8.781931877E0,1.554315758E1,2.029078150E1
8.474187941E0,1.111867237E1,7.833827972E0,1.449928570E1,1.988021684E1
8.479223332E0,1.092713642E1,7.067683220E0,1.426944256E1,1.931246870E1
8.484258723E0,9.337387085E0,6.617573261E0,1.459505367E1,1.854709317E1
8.489294114E0,7.489062786E0,6.330269337E0,1.482489681E1,1.777458682E1
8.494329506E0,5.516240597E0,5.822698593E0,1.484405041E1,1.687242015E1
