"Time (s)","Acceleration x (m/s^2)","Acceleration y (m/s^2)","Acceleration z (m/s^2)","Absolute acceleration (m/s^2)"
1.498095200E-2,-4.386177540E0,7.220912457E0,4.970362663E0,9.802277038E0
2.001634600E-2,-4.376600742E0,7.240066051E0,4.912901878E0,9.783138318E0
2.505174000E-2,-4.395754337E0,7.211335659E0,4.979939461E0,9.804377350E0
3.008713400E-2,-4.529829502E0,7.153874874E0,5.075707436E0,9.872187549E0
3.509201100E-2,-4.462791920E0,7.259219646E0,5.248090267E0,1.000775864E1
4.012740500E-2,-4.568136692E0,7.240066051E0,5.382165432E0,1.011207862E1
4.516280000E-2,-4.548983097E0,7.345410824E0,5.516240597E0,1.025071791E1
5.019819400E-2,-4.635174274E0,7.345410824E0,5.583278179E0,1.032535210E1
5.520307100E-2,-4.644751072E0,7.450755596E0,5.583278179E0,1.040482901E1
6.023846500E-2,-4.692635536E0,7.556100368E0,5.391742229E0,1.040126749E1
6.527385900E-2,-4.922478676E0,7.967903137E0,5.161899090E0,1.069408617E1
7.030925300E-2,-5.094861031E0,8.408436775E0,5.075707436E0,1.106445769E1
7.531413000E-2,-4.979939461E0,8.312667847E0,4.960785866E0,1.088621331E1
8.034952400E-2,-4.845864296E0,8.494627953E0,4.740519524E0,1.086800949E1
8.538491900E-2,-4.797980309E0,8.734047890E0,4.386177540E0,1.088773443E1
9.042031300E-2,-5.181052685E0,9.270348549E0,3.983951569E0,1.134259843E1
9.542519000E-2,-5.334281445E0,9.509769440E0,3.897760391E0,1.157941317E1
1.004605830E-1,-5.315127850E0,9.624691010E0,4.003105164E0,1.170085946E1
1.054959780E-1,-5.238513470E0,9.806650162E0,4.338293552E0,1.193453819E1
1.105313720E-1,-5.152322292E0,9.797073364E0,4.721365929E0,1.203413344E1
1.155362490E-1,-5.037400246E0,9.701305389E0,5.267243862E0,1.213402594E1
1.205716430E-1,-4.855441093E0,9.624691010E0,5.851428986E0,1.226577378E1
1.256070380E-1,-4.587290287E0,9.452308655E0,6.320692539E0,1.226134272E1
1.306119150E-1,-4.328716755E0,9.212887764E0,6.675034523E0,1.217255830E1
1.356473080E-1,-3.897760391E0,9.069235802E0,6.904877663E0,1.204661403E1
1.406827020E-1,-3.476380825E0,8.839392662E0,6.952761650E0,1.177119284E1
1.457180970E-1,-2.987963676E0,8.609549522E0,6.799532890E0,1.137039654E1
1.507229740E-1,-2.557007313E0,8.504204750E0,6.540958881E0,1.102923061E1
1.557583680E-1,-2.327163935E0,8.312667847E0,6.330269337E0,1.070459941E1
1.607937620E-1,-2.346317768E0,8.264783859E0,6.119579315E0,1.054803822E1
1.658291570E-1,-2.355894566E0,8.398859978E0,6.234501362E0,1.072194457E1
1.708340330E-1,-2.422932148E0,8.552088737E0,6.397306919E0,1.095145460E1
1.758694270E-1,-2.489969730E0,8.609549522E0,6.426037312E0,1.102806637E1
1.809048210E-1,-2.489969730E0,8.638279915E0,6.473921299E0,1.107842435E1
1.859402160E-1,-2.432508945E0,8.580819130E0,6.320692539E0,1.093154659E1
1.909450930E-1,-2.308010340E0,8.494627953E0,6.090848923E0,1.070439426E1
1.959804870E-1,-2.413355350E0,8.245630264E0,5.937620163E0,1.044366007E1
2.010158810E-1,-2.375048161E0,8.044517517E0,6.023811340E0,1.032673322E1
2.060207570E-1,-2.298433542E0,7.785943985E0,6.224924564E0,1.023002475E1
2.110561520E-1,-2.039859772E0,7.565677166E0,6.378153324E0,1.010353100E1
2.160915460E-1,-1.695094824E0,7.316680431E0,6.550535679E0,9.965775267E0
2.211269400E-1,-1.503558636E0,6.914454460E0,6.569689274E0,9.655629768E0
2.261318170E-1,-1.244984865E0,6.579266071E0,6.789956093E0,9.536258863E0
2.311672120E-1,-1.158793569E0,6.263231754E0,7.144298077E0,9.571408964E0
2.362026060E-1,-9.385270476E-1,5.995080948E0,7.527369976E0,9.668667299E0
2.412074820E-1,-6.512228847E-1,5.813121796E0,7.948749542E0,9.869098011E0
2.462428760E-1,-2.202665508E-1,5.650316238E0,8.188169479E0,9.950915052E0
2.512782710E-1,3.256114423E-1,5.477933407E0,8.283937454E0,9.936669310E0
2.563136650E-1,8.331822157E-1,5.200206280E0,8.331821442E0,9.856753344E0
2.613185420E-1,1.312022567E0,4.893748283E0,8.044517517E0,9.507073028E0
2.663539360E-1,1.800439715E0,4.778826714E0,7.747636795E0,9.279258798E0
2.713893300E-1,2.470816135E0,4.539406300E0,7.393294811E0,9.020640226E0
2.764247240E-1,2.882618904E0,4.242525578E0,7.173028469E0,8.818211408E0
2.814296010E-1,3.466804028E0,4.041412354E0,7.029376030E0,8.818382581E0
2.864649950E-1,3.869029999E0,3.801992416E0,6.636727333E0,8.571504486E0
2.915003890E-1,4.060565948E0,3.572149038E0,6.224924564E0,8.246097890E0
2.965357840E-1,4.127603531E0,3.390189648E0,5.851428986E0,7.922734246E0
3.015406610E-1,3.878606796E0,3.351882458E0,5.889736176E0,7.808181537E0
3.065760550E-1,3.428496838E0,3.485957623E0,6.042964935E0,7.773282210E0
3.116114480E-1,3.007117271E0,3.639186621E0,6.493074894E0,8.027854952E0
3.166468430E-1,2.700659513E0,3.754108191E0,6.914454460E0,8.318447607E0
3.216517200E-1,2.461239338E0,3.505111217E0,7.374141216E0,8.527687987E0
3.266871140E-1,2.221819162E0,3.332728863E0,7.776367188E0,8.747310941E0
3.317225080E-1,2.097320795E0,2.978386879E0,7.900865555E0,8.700185023E0
3.367579030E-1,1.915361404E0,2.710236311E0,8.006210327E0,8.666798369E0
3.417627800E-1,1.896207690E0,2.451662540E0,7.958326340E0,8.540562683E0
3.467981740E-1,1.685518026E0,2.126051188E0,7.690176010E0,8.154745351E0
3.518335670E-1,1.541865945E0,1.848323703E0,7.335834026E0,7.720628988E0
3.568689620E-1,1.522712231E0,1.656787634E0,6.962338448E0,7.316949806E0
3.618738390E-1,1.493981838E0,1.455674648E0,6.349422932E0,6.683273298E0
3.669092330E-1,1.292868972E0,1.302445769E0,5.631162167E0,5.922656710E0
3.719446270E-1,1.015141487E0,1.216254473E0,4.960785866E0,5.207608241E0
3.769495040E-1,5.458779931E-1,1.216254473E0,4.548983097E0,4.740306419E0
3.819848990E-1,6.703764945E-2,1.273715258E0,4.414907932E0,4.595460440E0
3.870202920E-1,-4.884171486E-1,1.312022567E0,4.635174274E0,4.841982557E0
3.920556860E-1,-1.053448796E0,1.359906554E0,5.027823448E0,5.313954161E0
3.970605630E-1,-1.522712231E0,1.283292055E0,5.736507416E0,6.072314910E0
4.020959580E-1,-2.087743998E0,1.187524080E0,6.464344501E0,6.896132124E0
4.071313520E-1,-2.557007313E0,1.015141487E0,7.431602001E0,7.924487803E0
4.121667460E-1,-2.882618904E0,8.619126081E-1,8.293514252E0,8.822401245E0
4.171716230E-1,-3.112462282E0,7.469909191E-1,8.973467827E0,9.527252580E0
4.222070170E-1,-3.141192675E0,6.224924326E-1,9.299078941E0,9.835011815E0
4.272424110E-1,-2.940079689E0,4.884171486E-1,9.461885452E0,9.920176218E0
4.322472880E-1,-2.700659513E0,2.011129409E-1,9.375694275E0,9.758977987E0
4.372826820E-1,-2.403778553E0,7.661445439E-2,9.299078941E0,9.605045042E0
4.423180770E-1,-2.183511972E0,-1.628057212E-1,9.394847870E0,9.646626184E0
4.473534710E-1,-2.030282974E0,-3.064578176E-1,9.586383820E0,9.803811508E0
4.523583480E-1,-1.886630893E0,-4.213795066E-1,9.816226959E0,1.000476129E1
4.573937410E-1,-1.733402014E0,-5.650315881E-1,1.002691650E1,1.019131973E1
4.624291360E-1,-1.695094824E0,-6.129156351E-1,1.018972206E1,1.034791997E1
4.674340120E-1,-1.656787634E0,-6.033388376E-1,1.043871975E1,1.058658741E1
4.724694070E-1,-1.752555609E0,-5.171475410E-1,1.050575733E1,1.066348113E1
4.775048010E-1,-1.991975784E0,-4.788403511E-1,1.058237171E1,1.077886110E1
4.825401960E-1,-2.298433542E0,-3.926490843E-1,1.061110210E1,1.086427439E1
4.875450720E-1,-2.537853718E0,-4.596867263E-1,1.081221485E1,1.111557481E1
4.925804660E-1,-2.738966703E0,-4.596867263E-1,1.075475407E1,1.110756434E1
4.976158600E-1,-2.920926094E0,-5.650315881E-1,1.060152531E1,1.101105848E1
5.026512550E-1,-3.055001259E0,-4.692635238E-1,1.026633644E1,1.072151598E1
5.076561310E-1,-3.045424461E0,-3.830722570E-1,1.013226128E1,1.058697658E1
5.126915260E-1,-3.064578056E0,-2.968810201E-1,1.002691650E1,1.048898620E1
5.177269200E-1,-3.045424461E0,-2.011129409E-1,1.004607010E1,1.049945622E1
5.227623150E-1,-3.074155092E0,-1.244984865E-1,1.018014526E1,1.063490889E1
5.277671900E-1,-3.093308687E0,-9.576806426E-2,1.047702694E1,1.092455142E1
5.328025850E-1,-3.093308687E0,-1.723825186E-1,1.080263805E1,1.123811654E1
5.378379790E-1,-3.169923067E0,-1.915361285E-1,1.113782597E1,1.158172118E1
5.428733730E-1,-3.256114244E0,-3.351882398E-1,1.142513084E1,1.188479053E1
5.478782500E-1,-3.102885485E0,-3.926490843E-1,1.161666679E1,1.203033744E1
5.529136450E-1,-3.112462282E0,-4.692635238E-1,1.165497398E1,1.207253280E1
5.579490390E-1,-3.179499865E0,-5.171475410E-1,1.150174522E1,1.194432100E1
5.629539160E-1,-3.313575268E0,-6.224924326E-1,1.133893967E1,1.182957441E1
5.679893090E-1,-3.313575268E0,-6.320692301E-1,1.120486355E1,1.170163492E1
5.730247040E-1,-3.265691042E0,-6.224924326E-1,1.108994198E1,1.157752339E1
5.780600980E-1,-3.208230257E0,-6.416460276E-1,1.089840603E1,1.137891493E1
5.830649750E-1,-3.179499865E0,-5.937620401E-1,1.080263805E1,1.127646938E1
5.881003690E-1,-3.026270866E0,-5.458779931E-1,1.078348446E1,1.121337751E1
5.931357640E-1,-2.911349297E0,-4.213795066E-1,1.079306126E1,1.118676391E1
5.981406400E-1,-2.873042107E0,-3.447650373E-1,1.088882923E1,1.126675800E1
6.031760340E-1,-2.987963676E0,-2.585737705E-1,1.098459721E1,1.138666602E1
6.082114280E-1,-3.198653460E0,-2.681505978E-1,1.102290440E1,1.148075390E1
6.132468230E-1,-3.466804028E0,-7.661445439E-2,1.092713642E1,1.146415764E1
6.182516990E-1,-3.533841610E0,6.703764945E-2,1.079306126E1,1.135705516E1
6.232870940E-1,-3.610456228E0,1.436520964E-1,1.060152531E1,1.120037361E1
6.283224880E-1,-3.629609823E0,3.064578176E-1,1.044829655E1,1.106502981E1
6.333578830E-1,-3.667917013E0,3.447650373E-1,1.022802925E1,1.087129525E1
6.383627580E-1,-3.620033026E0,3.639186621E-1,1.006522369E1,1.070260734E1
6.433981530E-1,-3.533841610E0,2.777273953E-1,9.931148529E0,1.054480347E1
6.484335470E-1,-3.495534420E0,2.011129409E-1,9.844957352E0,1.044903788E1
6.534384240E-1,-3.342305660E0,9.576806799E-3,9.682151794E0,1.024281027E1
6.584738180E-1,-3.284844637E0,-9.576806799E-3,9.538499832E0,1.008827414E1
6.635092130E-1,-3.208230257E0,-5.746084079E-2,9.251194954E0,9.791866584E0
6.685446070E-1,-2.911349297E0,-5.746084079E-2,9.145850182E0,9.598220253E0
6.735494830E-1,-2.748543501E0,2.873042040E-2,9.203310966E0,9.605011690E0
6.785848770E-1,-2.700659513E0,6.703764945E-2,9.327810287E0,9.711132818E0
6.836202720E-1,-2.834734917E0,1.532289088E-1,9.155426979E0,9.585460047E0
6.886251490E-1,-6.512228847E-1,-1.264138460E0,8.609549522E0,8.726195063E0
6.936605430E-1,-4.826710701E0,2.968810201E-1,9.414001465E0,1.058341618E1
6.986959370E-1,-4.817133904E0,6.895300746E-1,1.004607010E1,1.116260522E1
7.037313320E-1,-3.849876404E0,7.948749661E-1,1.055364132E1,1.126200336E1
7.087362080E-1,-2.949656487E0,4.884171486E-1,1.041956615E1,1.084003614E1
7.137716020E-1,-2.930502892E0,1.723825186E-1,1.034295177E1,1.075147498E1
7.188069960E-1,-2.710236311E0,-8.810662031E-1,1.000776291E1,1.040562237E1
7.238423910E-1,-4.817133904E0,-5.075707436E-1,1.059194851E1,1.164696443E1
7.288472680E-1,-5.056553841E0,-3.447650373E-1,1.052491093E1,1.168166725E1
7.338826620E-1,-4.644751072E0,-1.436520964E-1,1.042914295E1,1.141759043E1
7.389180560E-1,-4.070142746E0,-3.543418646E-1,1.030464458E1,1.108500429E1
7.439229320E-1,-3.936067581E0,-4.309563041E-1,1.045787334E1,1.118237301E1
7.489583270E-1,-4.012681961E0,-5.554547906E-1,1.062067890E1,1.136701222E1
7.539937210E-1,-3.849876404E0,-5.267243981E-1,1.080263805E1,1.148024285E1
7.590291150E-1,-2.873042107E0,-8.714894056E-1,1.014183807E1,1.057689672E1
7.640339920E-1,-2.930502892E0,-5.746083856E-1,1.079306126E1,1.119857997E1
7.690693870E-1,-2.164358377E0,-6.512228847E-1,1.053448772E1,1.077422712E1
7.741047810E-1,-1.628057122E0,-6.703764796E-1,1.044829655E1,1.059560642E1
7.791401740E-1,-1.235408068E0,-5.841852427E-1,1.031422138E1,1.040435814E1
7.841450510E-1,-8.140285611E-1,-5.650315881E-1,1.075475407E1,1.080030732E1
7.891804460E-1,-1.810016513E0,-5.363011956E-1,1.125274754E1,1.141000026E1
7.942158400E-1,-2.557007313E0,-2.873041928E-1,1.168370438E1,1.196368581E1
7.992512340E-1,-2.940079689E0,1.244984865E-1,1.136767006E1,1.174238013E1
8.042561110E-1,-2.882618904E0,2.968810201E-1,1.033337498E1,1.073202071E1
8.092915060E-1,-2.365471363E0,3.926490843E-1,9.375694275E0,9.677462023E0
8.143268990E-1,-1.742978811E0,4.596867263E-1,8.877699852E0,9.058854325E0
8.193317760E-1,-1.197100878E0,2.873041928E-1,8.944737434E0,9.029059861E0
8.243671700E-1,-1.110909581E0,2.681505978E-1,9.040505409E0,9.112450982E0
8.294025650E-1,-1.197100878E0,1.819593310E-1,9.030928612E0,9.111741398E0
8.344379590E-1,-1.589749932E0,3.447650373E-1,8.820239067E0,8.968990187E0
8.394428360E-1,-1.771709204E0,5.746083856E-1,8.599972725E0,8.799355611E0
8.444782300E-1,-2.039859772E0,8.331822157E-1,8.283937454E0,8.571979949E0
8.495136240E-1,-2.240972757E0,1.139639974E0,7.996633530E0,8.382534579E0
8.545490180E-1,-2.422932148E0,1.206677675E0,7.690176010E0,8.152636277E0
8.595538950E-1,-2.317587137E0,1.254561663E0,7.211335659E0,7.677792462E0
8.645892890E-1,-1.877054095E0,1.254561663E0,5.956773758E0,6.370275555E0
8.696246830E-1,-1.072602391E0,1.177947283E0,4.261679173E0,4.549719229E0
8.746600780E-1,-6.895300746E-1,8.331822157E-1,4.003105164E0,4.146624565E0
8.796649550E-1,-3.351882398E-1,7.661445141E-1,4.683058739E0,4.757138607E0
8.847003490E-1,-1.924938202E0,6.799532771E-1,1.539950562E1,1.553423628E1
8.897357420E-1,-3.294421434E0,1.101332784E0,8.963891029E0,9.613401525E0
8.947406190E-1,-1.522712231E0,7.086837292E-1,8.082824707E0,8.255479417E0
8.997760140E-1,-3.122039080E0,7.086837292E-1,8.571242332E0,9.149620526E0
9.048114080E-1,-9.097966552E-1,-9.576806799E-3,4.070142746E0,4.170597516E0
9.098468020E-1,-1.896207690E0,4.884171486E-1,5.410895824E0,5.754298266E0
9.148516790E-1,-2.276407051E1,-7.661445439E-2,2.164358330E1,3.141104064E1
9.198870740E-1,-3.543418646E-1,1.379060149E0,3.620033026E0,3.889987681E0
9.249224670E-1,-3.782838583E0,6.991068721E-1,2.887407303E1,2.912920719E1
9.299578610E-1,2.873041928E-1,1.082179189E0,-6.703764796E-1,1.305013456E0
9.349627380E-1,2.681505978E-1,4.022258818E-1,3.744531393E0,3.775606674E0
9.399981330E-1,-4.711789131E0,7.661445439E-2,1.606030464E1,1.673738963E1
9.450335270E-1,-2.882618904E0,-1.340752989E-1,8.695740700E0,9.162061681E0
9.500384040E-1,-2.604891539E0,2.298433632E-1,5.832275391E0,6.391691805E0
9.550737980E-1,-3.811569214E0,-9.576806426E-2,1.156878281E1,1.218088531E1
9.601091920E-1,-2.269703150E0,-7.661445439E-2,7.134721279E0,7.487434133E0
9.651445860E-1,-3.208230257E0,-8.619125932E-2,1.018014526E1,1.067405864E1
9.701494630E-1,-2.643198729E0,-3.256114423E-1,8.820239067E0,9.213530243E0
9.751848570E-1,-2.624045134E0,-4.309563041E-1,1.033337498E1,1.067005036E1
9.802202520E-1,-2.633621931E0,-3.351882398E-1,9.911994934E0,1.026138193E1
9.852556460E-1,-2.126051188E0,-1.532289088E-1,9.682151794E0,9.914012110E0
9.902605230E-1,-1.982398987E0,-1.244984865E-1,9.069235802E0,9.284203985E0
9.952959160E-1,-1.953668594E0,-4.309563041E-1,1.015141487E1,1.034667909E1
1.000331311E0,-1.819593310E0,-4.213795066E-1,9.911994934E0,1.008643267E1
1.005336187E0,-1.628057122E0,-3.160346150E-1,1.042914295E1,1.056018326E1
1.010371582E0,-1.484405041E0,-2.873041928E-1,9.519346237E0,9.638669763E0
1.015406976E0,-1.340752959E0,-1.915361360E-2,9.318233490E0,9.414215885E0
1.020442371E0,-1.551442742E0,0.000000000E0,9.615114212E0,9.739476161E0
1.025447247E0,-1.446097851E0,3.830722719E-2,9.643844604E0,9.751738573E0
1.030482641E0,-1.197100878E0,2.106897533E-1,9.797073364E0,9.872187558E0
1.035518035E0,-1.168370485E0,1.436520964E-1,9.844957352E0,9.915085011E0
1.040553430E0,-1.340752959E0,1.340752989E-1,9.844957352E0,9.936738899E0
1.045558306E0,-1.283292055E0,1.149216816E-1,9.701305389E0,9.786489245E0
1.050593701E0,-1.426944256E0,6.703764945E-2,9.979032516E0,1.008076157E1
1.055629095E0,-1.465251446E0,-4.788403213E-2,1.002691650E1,1.013352403E1
1.060664490E0,-1.369483352E0,-2.489969730E-1,9.979032516E0,1.007564262E1
1.065669366E0,-1.340752959E0,-2.968810201E-1,9.911994934E0,1.000666780E1
1.070704760E0,-1.321599364E0,-3.447650373E-1,1.034295177E1,1.043274361E1
1.075740154E0,-1.321599364E0,-4.596867263E-1,9.739612579E0,9.839613303E0
1.080775549E0,-1.072602391E0,-4.022258818E-1,9.797073364E0,9.863818128E0
1.085780425E0,-9.097966552E-1,-2.968810201E-1,9.979032516E0,1.002481712E1
1.090815820E0,-8.906430602E-1,-1.819593310E-1,1.008437729E1,1.012526639E1
1.095851214E0,-7.469909191E-1,-1.436520964E-1,1.020887566E1,1.023717605E1
1.100886608E0,-6.607996821E-1,0.000000000E0,9.969455719E0,9.991331420E0
1.105891484E0,-7.086837292E-1,-9.576806799E-3,1.001733971E1,1.004238115E1
1.110926879E0,-7.182605267E-1,2.873042040E-2,9.739612579E0,9.766103461E0
1.115962273E0,-6.895300746E-1,2.298433632E-1,9.576807022E0,9.604348621E0
1.120997667E0,-7.374141216E-1,2.585737705E-1,9.490615845E0,9.522732228E0
1.126002544E0,-8.044517636E-1,6.703764945E-2,9.595960617E0,9.629854456E0
1.131037939E0,-6.607996821E-1,1.628057212E-1,9.567230225E0,9.591405324E0
1.136073333E0,-6.607996821E-1,1.723825186E-1,9.710882187E0,9.734865423E0
1.141108726E0,-6.416460276E-1,2.202665508E-1,9.854534149E0,9.877857575E0
1.146113603E0,-6.512228847E-1,2.106897533E-1,1.020887566E1,1.023179474E1
1.151148998E0,-7.374141216E-1,3.830722719E-2,1.001733971E1,1.004451800E1
1.156184392E0,-7.278373241E-1,-2.394201756E-1,9.787496567E0,9.817441532E0
1.161219786E0,-6.799532771E-1,-3.256114423E-1,1.011310768E1,1.014116888E1
1.166224663E0,-6.607996821E-1,-3.734954596E-1,1.019929886E1,1.022750469E1
1.171260058E0,-9.002198577E-1,-1.532289088E-1,1.010353088E1,1.014471346E1
1.176295451E0,-8.523358107E-1,-3.830722719E-2,1.023760605E1,1.027309697E1
1.181300328E0,-7.278373241E-1,-1.149216816E-1,1.002691650E1,1.005395488E1
1.186335722E0,-3.734954596E-1,-1.532289088E-1,9.710882187E0,9.719270076E0
1.191371117E0,-3.064578176E-1,-3.160346150E-1,9.739612579E0,9.749556270E0
1.196406511E0,-1.723825186E-1,-3.447650373E-1,9.768342972E0,9.775945125E0
1.201411388E0,-7.661445439E-2,-3.160346150E-1,9.452308655E0,9.457900748E0
1.206446782E0,-1.532289088E-1,-3.351882398E-1,9.921571732E0,9.928414570E0
1.211482176E0,-5.075707436E-1,-4.596867263E-1,9.979032516E0,1.000250118E1
1.216517570E0,-4.788403511E-1,-5.937620401E-1,1.018972206E1,1.021823258E1
1.221522447E0,-2.394201756E-1,-5.937620401E-1,1.022802925E1,1.024804653E1
1.226557841E0,-6.703764945E-2,-4.022258818E-1,1.026633644E1,1.027443155E1
1.231593236E0,-1.628057212E-1,-1.340752989E-1,1.013226128E1,1.013445610E1
1.236628630E0,-2.968810201E-1,-1.340752989E-1,1.006522369E1,1.007049366E1
1.241633507E0,-4.884171486E-1,-3.830722570E-1,9.442731857E0,9.463111570E0
1.246668900E0,-9.864110947E-1,-3.734954596E-1,1.248815632E1,1.253261960E1
1.251704295E0,-5.841852427E-1,-1.915361360E-2,1.086967564E1,1.088537954E1
1.256739689E0,-4.979939461E-1,6.703764945E-2,9.959878922E0,9.972546322E0
1.261744566E0,-4.788403511E-1,1.628057212E-1,9.988609314E0,1.000140539E1
1.266779960E0,-3.447650373E-1,9.576806426E-2,1.017056847E1,1.017686088E1
1.271815355E0,-2.106897533E-1,-9.576806799E-3,1.004607010E1,1.004828375E1
1.276820231E0,-4.022258818E-1,-6.703764945E-2,1.063025570E1,1.063807388E1
1.281855625E0,-5.075707436E-1,-9.576806799E-3,9.835380554E0,9.848473507E0
1.286891019E0,-3.351882398E-1,-9.576806426E-2,9.260771751E0,9.267330582E0
1.291926414E0,-2.873041928E-1,0.000000000E0,9.155426979E0,9.159933781E0
1.296931290E0,-2.394201756E-1,-4.788403213E-2,1.002691650E1,1.002988881E1
1.301966685E0,-1.819593310E-1,-2.873042040E-2,8.963891029E0,8.965783681E0
1.307002079E0,-3.734954596E-1,1.436520964E-1,1.031422138E1,1.032198128E1
1.312037474E0,-1.723825186E-1,2.011129409E-1,9.672574997E0,9.676201177E0
1.317042349E0,-2.106897533E-1,2.873041928E-1,1.012268448E1,1.012895231E1
1.322077744E0,-1.149216816E-1,2.106897533E-1,9.126696587E0,9.129851464E0
1.327113138E0,-2.873042040E-2,1.436520964E-1,9.758766174E0,9.759865706E0
1.332118015E0,-2.873042040E-2,2.394201756E-1,9.701305389E0,9.704301815E0
1.337153409E0,-6.703764945E-2,1.532289088E-1,1.028549004E1,1.028684978E1
1.342188804E0,-1.915361360E-2,1.244984865E-1,9.672574997E0,9.673395154E0
1.347224198E0,-1.340752989E-1,9.576806426E-2,9.653421402E0,9.654827418E0
1.352229075E0,-1.053448766E-1,1.628057212E-1,9.586383820E0,9.588344903E0
1.357264468E0,-3.256114423E-1,-9.576806799E-3,9.940725327E0,9.946061258E0
1.362299863E0,-2.011129409E-1,-4.788403213E-2,9.557653427E0,9.559889033E0
1.367335257E0,-1.723825186E-1,-5.746084079E-2,9.538499832E0,9.540230423E0
1.372340134E0,-2.873041928E-1,-7.661445439E-2,9.605537415E0,9.610138526E0
1.377375528E0,-2.873041928E-1,9.576806426E-2,9.739612579E0,9.744319803E0
1.382410923E0,-3.160346150E-1,1.340752989E-1,9.375694275E0,9.381977254E0
1.387415800E0,-3.256114423E-1,2.873042040E-2,1.020887566E1,1.021410742E1
1.392451193E0,-2.011129409E-1,-9.576806799E-3,9.385271072E0,9.387430491E0
1.397486587E0,-3.160346150E-1,8.619125932E-2,1.046745014E1,1.047257463E1
1.402521982E0,-1.532289088E-1,-9.576806799E-3,1.001733971E1,1.001851614E1
1.407526859E0,-1.244984865E-1,4.788403213E-2,9.979032516E0,9.979923984E0
1.412562253E0,2.106897533E-1,-5.650315881E-1,8.801085472E0,8.821720714E0
1.417597647E0,-1.340752989E-1,-7.661445439E-2,1.026633644E1,1.026749774E1
1.422633042E0,-3.447650373E-1,2.777273953E-1,1.052491093E1,1.053421784E1
1.427637917E0,7.661445439E-2,-2.873042040E-2,1.031422138E1,1.031454594E1
1.432673312E0,1.340752989E-1,-5.746084079E-2,9.854534149E0,9.855613691E0
1.437708706E0,-1.915361360E-2,2.011129409E-1,1.037168217E1,1.037364951E1
1.442744101E0,8.619125932E-2,-7.661445439E-2,9.825803757E0,9.826480457E0
1.447748977E0,-9.576806799E-3,1.723825186E-1,1.091755962E1,1.091892465E1
1.452784372E0,3.543418646E-1,2.489969730E-1,9.414001465E0,9.423957833E0
1.457819766E0,1.436520964E-1,3.639186621E-1,8.839392662E0,8.848046979E0
1.462824642E0,8.619125932E-2,4.213795066E-1,9.682151794E0,9.691700212E0
1.467860036E0,4.788403213E-2,8.427590132E-1,9.222464561E0,9.261014427E0
1.472895431E0,1.532289088E-1,2.681505978E-1,7.460332394E0,7.466722391E0
1.477930825E0,1.532289088E-1,8.906430602E-1,1.164539719E1,1.168041094E1
1.482935702E0,1.953668594E0,3.830722719E-2,8.714894295E0,8.931274880E0
1.487971096E0,2.221819162E0,-5.267243981E-1,8.820239067E0,9.111011809E0
1.493006491E0,1.053448796E0,-4.596867263E-1,1.032379818E1,1.038758274E1
1.498041884E0,7.086837292E-1,-1.177947283E0,1.039083576E1,1.048137683E1
1.503046761E0,1.053448766E-1,-7.469909191E-1,9.634267807E0,9.663757507E0
1.508082155E0,-3.639186621E-1,-1.321599364E0,1.102290440E1,1.110781180E1
1.513117550E0,-4.692635238E-1,-7.469909191E-1,1.008437729E1,1.012288837E1
1.518152944E0,-1.819593310E-1,-9.576807022E-1,9.873687744E0,9.921691952E0
1.523157821E0,1.340752989E-1,-5.841852427E-1,1.000776291E1,1.002569534E1
1.528193215E0,9.576806426E-2,-2.106897533E-1,1.059194851E1,1.059447662E1
1.533228609E0,2.489969730E-1,-2.873042040E-2,1.062067890E1,1.062363616E1
1.538264003E0,8.714894056E-1,-7.661445439E-2,1.088882923E1,1.092391714E1
1.543268880E0,8.810662031E-1,7.661445439E-2,9.260771751E0,9.302904969E0
1.548304274E0,4.118026793E-1,3.639186621E-1,9.404424667E0,9.420468224E0
1.553339669E0,5.458779931E-1,1.819593310E-1,9.940725327E0,9.957364712E0
1.558344546E0,4.213795066E-1,2.585737705E-1,9.921571732E0,9.933881754E0
1.563379940E0,2.873042040E-2,3.830722570E-1,1.048660374E1,1.049363749E1
1.568415333E0,1.149216816E-1,4.309563041E-1,1.070687008E1,1.071615590E1
1.573450728E0,4.309563041E-1,3.734954596E-1,1.069729328E1,1.071248364E1
1.578455605E0,5.554547906E-1,1.340752989E-1,1.040998936E1,1.042565991E1
1.583490999E0,5.937620401E-1,1.532289088E-1,9.883264542E0,9.902269965E0
1.588526393E0,2.777273953E-1,6.703764945E-2,1.063983250E1,1.064366770E1
1.593561788E0,4.884171486E-1,-2.489969730E-1,1.163582039E1,1.164872812E1
1.598566665E0,3.064578176E-1,-1.723825186E-1,9.806650162E0,9.812951621E0
1.603602058E0,0.000000000E0,-3.830722570E-1,1.046745014E1,1.047445735E1
1.608637452E0,2.202665508E-1,-3.734954596E-1,1.017056847E1,1.017980742E1
1.613672847E0,2.011129409E-1,-2.777273953E-1,9.471462250E0,9.477667227E0
1.618677724E0,2.489969730E-1,-4.884171486E-1,9.222464561E0,9.238744687E0
1.623713118E0,2.873042040E-2,-6.991068721E-1,9.691728592E0,9.716953172E0
1.628748512E0,-1.053448766E-1,-6.416460276E-1,1.018014526E1,1.020089039E1
1.633783907E0,6.703764945E-2,-1.024718285E0,1.003649330E1,1.008889188E1
1.638788784E0,3.830722719E-2,-7.948749661E-1,9.097966194E0,9.132704010E0
1.643824177E0,-2.968810201E-1,-1.158793569E0,9.892841339E0,9.964900935E0
1.648859571E0,-1.340752989E-1,-1.254561663E0,9.883264542E0,9.963474251E0
1.653894966E0,-8.619125932E-2,-1.388636947E0,1.000776291E1,1.010401207E1
1.658899843E0,-1.628057212E-1,-1.158793569E0,9.777919769E0,9.847691265E0
1.663935237E0,2.777273953E-1,1.819593310E-1,9.423578262E0,9.429425697E0
1.668970631E0,3.256114423E-1,-1.053448766E-1,1.000776291E1,1.001361267E1
1.674006025E0,3.160346150E-1,-1.915361360E-2,1.003649330E1,1.004148607E1
1.679010902E0,2.968810201E-1,0.000000000E0,9.720458984E0,9.724991579E0
1.684046296E0,2.489969730E-1,-8.619125932E-2,9.921571732E0,9.925069977E0
1.689081690E0,4.022258818E-1,-1.244984865E-1,9.691728592E0,9.700870509E0
1.694086567E0,4.405331016E-1,-1.532289088E-1,9.921571732E0,9.932529091E0
1.699121961E0,4.022258818E-1,-9.576806426E-2,9.959878922E0,9.968457519E0
1.704157356E0,2.873041928E-1,-7.661445439E-2,9.701305389E0,9.705861102E0
1.709192750E0,2.106897533E-1,-5.746084079E-2,9.749189377E0,9.751635013E0
1.714197626E0,2.873041928E-1,-1.915361360E-2,9.921571732E0,9.925749150E0
1.719233020E0,2.681505978E-1,-4.788403213E-2,9.902418137E0,9.906163868E0
1.724268415E0,2.777273953E-1,-9.576806799E-3,9.816226959E0,9.820159670E0
1.729303809E0,1.915361285E-1,-3.830722719E-2,9.797073364E0,9.799020361E0
1.734308686E0,2.681505978E-1,-1.819593310E-1,9.911994934E0,9.917290835E0
1.739344080E0,2.489969730E-1,-8.619125932E-2,9.940725327E0,9.944216834E0
1.744379475E0,2.585737705E-1,-8.619125932E-2,9.768342972E0,9.772144787E0
1.749414868E0,2.202665508E-1,-4.788403213E-2,9.873687744E0,9.876260421E0
1.754419745E0,2.968810201E-1,-9.576806426E-2,9.902418137E0,9.907330358E0
1.759455139E0,2.202665508E-1,-3.830722719E-2,9.921571732E0,9.924090408E0
1.764490534E0,2.489969730E-1,-6.703764945E-2,9.844957352E0,9.848333808E0
1.769495411E0,2.202665508E-1,-2.873042040E-2,9.854534149E0,9.857037389E0
1.774530805E0,2.489969730E-1,-3.830722719E-2,9.835380554E0,9.838606486E0
1.779566199E0,1.819593310E-1,-1.340752989E-1,9.883264542E0,9.885848643E0
1.784601593E0,2.585737705E-1,-1.149216816E-1,9.864110947E0,9.868168632E0
1.789606470E0,2.394201756E-1,-7.661445439E-2,9.816226959E0,9.819445173E0
1.794641864E0,2.489969730E-1,-1.053448766E-1,9.816226959E0,9.819949529E0
1.799677258E0,2.681505978E-1,-9.576806426E-2,9.844957352E0,9.849074145E0
1.804682135E0,2.968810201E-1,-1.053448766E-1,9.892841339E0,9.897855608E0
1.809717530E0,2.202665508E-1,-7.661445439E-2,9.825803757E0,9.828570933E0
1.814752924E0,2.873041928E-1,-9.576806426E-2,9.911994934E0,9.916620331E0
1.819788317E0,2.489969730E-1,-9.576806426E-2,9.816226959E0,9.819851462E0
1.824793194E0,2.777273953E-1,-1.053448766E-1,9.816226959E0,9.820720023E0
1.829828589E0,3.160346150E-1,-1.340752989E-1,9.873687744E0,9.879654029E0
1.834863983E0,2.489969730E-1,-1.436520964E-1,9.854534149E0,9.858726019E0
1.839899377E0,2.011129409E-1,-8.619125932E-2,9.835380554E0,9.837814086E0
1.844904254E0,2.202665508E-1,-9.576806799E-3,9.873687744E0,9.876148983E0
1.849939649E0,2.202665508E-1,-1.244984865E-1,9.883264542E0,9.886502679E0
1.854975042E0,2.873041928E-1,-1.723825186E-1,9.844957352E0,9.850657069E0
1.860010436E0,2.202665508E-1,-5.746084079E-2,9.892841339E0,9.895460013E0
1.865015313E0,2.681505978E-1,-8.619125932E-2,9.864110947E0,9.868131457E0
1.870050708E0,2.681505978E-1,-1.149216816E-1,9.816226959E0,9.820561259E0
1.875086102E0,2.394201756E-1,-6.703764945E-2,9.797073364E0,9.800227680E0
1.880090979E0,2.298433632E-1,-7.661445439E-2,9.787496567E0,9.790494716E0
1.885126373E0,2.394201756E-1,-6.703764945E-2,9.844957352E0,9.848096330E0
1.890161767E0,2.777273953E-1,-8.619125932E-2,9.873687744E0,9.877968977E0
1.895197161E0,2.873041928E-1,-1.053448766E-1,9.835380554E0,9.840139831E0
1.900202038E0,2.873041928E-1,-6.703764945E-2,9.883264542E0,9.887666850E0
1.905237432E0,1.628057212E-1,-4.788403213E-2,9.873687744E0,9.875145986E0
1.910272827E0,2.585737705E-1,-8.619125932E-2,9.835380554E0,9.839156467E0
1.915308221E0,2.489969730E-1,-1.149216816E-1,9.825803757E0,9.829630001E0
1.920313098E0,2.777273953E-1,-4.788403213E-2,9.902418137E0,9.906427728E0
1.925348492E0,2.394201756E-1,-8.619125932E-2,9.854534149E0,9.857818940E0
1.930383886E0,2.394201756E-1,-9.576806426E-2,9.806650162E0,9.810039803E0
1.935388762E0,2.777273953E-1,-6.703764945E-2,9.873687744E0,9.877820419E0
1.940424157E0,3.160346150E-1,-9.576806426E-2,9.825803757E0,9.831351324E0
1.945459551E0,2.777273953E-1,-1.053448766E-1,9.873687744E0,9.878154672E0
1.950494946E0,2.681505978E-1,-7.661445439E-2,9.844957352E0,9.848906527E0
1.955499822E0,2.585737705E-1,-6.703764945E-2,9.835380554E0,9.839007322E0
1.960535217E0,2.968810201E-1,-7.661445439E-2,9.835380554E0,9.840158472E0
1.965570610E0,2.202665508E-1,-4.788403213E-2,9.873687744E0,9.876260421E0
1.970575487E0,2.106897533E-1,-3.830722719E-2,9.864110947E0,9.866435141E0
1.975610881E0,2.298433632E-1,-9.576806799E-3,9.892841339E0,9.895515623E0
1.980646276E0,2.202665508E-1,-1.244984865E-1,9.892841339E0,9.896076343E0
1.985681670E0,3.256114423E-1,-1.244984865E-1,9.844957352E0,9.851127242E0
1.990686547E0,2.873041928E-1,-1.244984865E-1,9.950302124E0,9.955227568E0
1.995721941E0,2.968810201E-1,-6.703764945E-2,9.883264542E0,9.887949756E0
2.000757335E0,2.968810201E-1,-6.703764945E-2,9.864110947E0,9.868805255E0
2.005762211E0,2.585737705E-1,-6.703764945E-2,9.864110947E0,9.867727155E0
2.010797606E0,2.968810201E-1,-2.873042040E-2,9.806650162E0,9.811185003E0
2.015833000E0,2.394201756E-1,-1.340752989E-1,9.864110947E0,9.867926985E0
2.020868395E0,2.202665508E-1,-7.661445439E-2,9.873687744E0,9.876441505E0
2.025873271E0,2.681505978E-1,-7.661445439E-2,9.825803757E0,9.829760627E0
2.030908666E0,2.681505978E-1,-7.661445439E-2,9.844957352E0,9.848906527E0
2.035944059E0,2.873041928E-1,-5.746084079E-2,9.816226959E0,9.820598615E0
2.040979454E0,3.064578176E-1,-8.619125932E-2,9.911994934E0,9.917105873E0
2.045984330E0,2.585737705E-1,-6.703764945E-2,9.902418137E0,9.906020361E0
2.051019725E0,1.915361285E-1,-6.703764945E-2,9.911994934E0,9.914072004E0
2.056055119E0,1.723825186E-1,-1.244984865E-1,9.854534149E0,9.856828035E0
2.061059996E0,2.489969730E-1,-8.619125932E-2,9.825803757E0,9.829336086E0
2.066095390E0,2.202665508E-1,-1.915361360E-2,9.825803757E0,9.828290985E0
2.071130784E0,2.489969730E-1,-3.830722719E-2,9.844957352E0,9.848180146E0
2.076166178E0,2.873041928E-1,-1.915361360E-2,9.835380554E0,9.839594565E0
2.081171055E0,2.394201756E-1,-1.053448766E-1,9.825803757E0,9.829284767E0
2.086206449E0,2.298433632E-1,-1.053448766E-1,9.883264542E0,9.886498041E0
2.091241844E0,2.489969730E-1,-6.703764945E-2,9.873687744E0,9.877054379E0
2.096277238E0,2.777273953E-1,-6.703764945E-2,9.835380554E0,9.839529318E0
2.101282115E0,2.873041928E-1,-8.619125932E-2,9.806650162E0,9.811236417E0
2.106317508E0,2.681505978E-1,-5.746084079E-2,9.911994934E0,9.915787920E0
2.111352903E0,2.394201756E-1,-2.873042040E-2,9.835380554E0,9.838336145E0
2.116357780E0,2.394201756E-1,-5.746084079E-2,9.883264542E0,9.886331057E0
2.121393174E0,2.968810201E-1,-9.576806426E-2,9.854534149E0,9.859470227E0
2.126428568E0,2.681505978E-1,-7.661445439E-2,9.844957352E0,9.848906527E0
2.131463963E0,2.585737705E-1,-3.830722719E-2,9.787496567E0,9.790986512E0
2.136468840E0,2.394201756E-1,-4.788403213E-2,9.873687744E0,9.876706160E0
2.141504234E0,2.777273953E-1,-9.576806426E-2,9.873687744E0,9.878057182E0
2.146539627E0,2.394201756E-1,-8.619125932E-2,9.873687744E0,9.876966165E0
2.151575022E0,2.681505978E-1,-1.149216816E-1,9.854534149E0,9.858851608E0
2.156579899E0,2.489969730E-1,-7.661445439E-2,9.797073364E0,9.800536504E0
2.161615293E0,2.394201756E-1,-8.619125932E-2,9.816226959E0,9.819524564E0
2.166650687E0,2.489969730E-1,-4.788403213E-2,9.825803757E0,9.829074821E0
2.171655564E0,2.777273953E-1,-1.053448766E-1,9.787496567E0,9.792002813E0
2.176690959E0,1.915361285E-1,-1.915361360E-2,9.844957352E0,9.846838996E0
2.181726352E0,2.298433632E-1,-7.661445439E-2,9.902418137E0,9.905381502E0
2.186761746E0,2.873041928E-1,-5.746084079E-2,9.816226959E0,9.820598615E0
2.191766623E0,2.968810201E-1,-5.746084079E-2,9.873687744E0,9.878317152E0
2.196802018E0,2.873041928E-1,-7.661445439E-2,9.892841339E0,9.897308889E0
2.201837412E0,2.585737705E-1,-9.576806426E-2,9.854534149E0,9.858391107E0
2.206872806E0,2.106897533E-1,-3.830722719E-2,9.835380554E0,9.837711536E0
2.211877683E0,2.873041928E-1,-9.576806426E-2,9.864110947E0,9.868758787E0
2.216913077E0,2.394201756E-1,-4.788403213E-2,9.854534149E0,9.857558430E0
2.221948471E0,3.256114423E-1,-3.830722719E-2,9.873687744E0,9.879129512E0
2.226953348E0,2.106897533E-1,-5.746084079E-2,9.854534149E0,9.856953648E0
2.231988742E0,2.968810201E-1,-9.576806426E-2,9.806650162E0,9.811610329E0
2.237024137E0,2.585737705E-1,-1.149216816E-1,9.864110947E0,9.868168632E0
2.242059531E0,2.394201756E-1,-2.873042040E-2,9.854534149E0,9.857483997E0
2.247064408E0,2.298433632E-1,-3.830722719E-2,9.902418137E0,9.905159280E0
2.252099801E0,2.681505978E-1,-5.746084079E-2,9.825803757E0,9.829630001E0
2.257135196E0,2.681505978E-1,-6.703764945E-2,9.864110947E0,9.867982750E0
2.262170590E0,2.202665508E-1,-1.053448766E-1,9.854534149E0,9.857558430E0
2.267175467E0,2.873041928E-1,-5.746084079E-2,9.883264542E0,9.887606558E0
2.272210861E0,2.585737705E-1,-7.661445439E-2,9.816226959E0,9.819930849E0
2.277246255E0,2.298433632E-1,-7.661445439E-2,9.825803757E0,9.828790221E0
2.282251132E0,2.298433632E-1,-1.053448766E-1,9.844957352E0,9.848203429E0
2.287286526E0,2.777273953E-1,-8.619125932E-2,9.892841339E0,9.897114287E0
2.292321920E0,2.489969730E-1,-8.619125932E-2,9.825803757E0,9.829336086E0
2.297357314E0,2.968810201E-1,-7.661445439E-2,9.816226959E0,9.821014196E0
2.302362191E0,2.585737705E-1,-1.053448766E-1,9.844957352E0,9.848915839E0
2.307397586E0,2.777273953E-1,-4.788403213E-2,9.864110947E0,9.868136103E0
2.312432980E0,2.106897533E-1,-9.576806426E-2,9.892841339E0,9.895548062E0
2.317468374E0,2.298433632E-1,-2.873042040E-2,9.835380554E0,9.838107748E0
2.322473250E0,2.489969730E-1,-1.053448766E-1,9.902418137E0,9.906108317E0
2.327508645E0,2.777273953E-1,-7.661445439E-2,9.844957352E0,9.849171921E0
2.332544039E0,2.873041928E-1,-2.873042040E-2,9.864110947E0,9.868335924E0
2.337579433E0,2.394201756E-1,-8.619125932E-2,9.816226959E0,9.819524564E0
2.342584310E0,2.968810201E-1,-1.149216816E-1,9.902418137E0,9.907534016E0
2.347619705E0,2.681505978E-1,-2.873042040E-2,9.749189377E0,9.752918726E0
2.352655099E0,2.873041928E-1,-1.149216816E-1,9.825803757E0,9.830674959E0
2.357659975E0,2.873041928E-1,-1.244984865E-1,9.854534149E0,9.859507435E0
2.362695369E0,2.968810201E-1,-2.873042040E-2,9.873687744E0,9.878191811E0
2.367730764E0,3.256114423E-1,-6.703764945E-2,9.844957352E0,9.850568619E0
2.372766158E0,2.681505978E-1,-1.053448766E-1,9.854534149E0,9.858744625E0
2.377771035E0,2.394201756E-1,-5.746084079E-2,9.931148529E0,9.934200263E0
2.382806429E0,2.777273953E-1,-1.149216816E-1,9.883264542E0,9.887833812E0
2.387841824E0,2.585737705E-1,-6.703764945E-2,9.902418137E0,9.906020361E0
2.392877217E0,2.681505978E-1,-9.576806799E-3,9.854534149E0,9.858186433E0
2.397882094E0,2.873041928E-1,-7.661445439E-2,9.854534149E0,9.859019057E0
2.402917488E0,2.106897533E-1,-1.915361360E-2,9.844957352E0,9.847230184E0
2.407952883E0,2.489969730E-1,-1.053448766E-1,9.883264542E0,9.886961871E0
2.412988277E0,2.298433632E-1,-1.244984865E-1,9.873687744E0,9.877147236E0
2.418023671E0,2.202665508E-1,-1.053448766E-1,9.921571732E0,9.924575584E0
2.423028548E0,2.585737705E-1,-9.576806426E-2,9.854534149E0,9.858391107E0
2.428063943E0,2.202665508E-1,-1.915361360E-2,9.844957352E0,9.847439742E0
2.433099336E0,2.202665508E-1,-8.619125932E-2,9.902418137E0,9.905242614E0
2.438134730E0,2.202665508E-1,-6.703764945E-2,9.873687744E0,9.876371858E0
2.443139607E0,2.394201756E-1,-8.619125932E-2,9.816226959E0,9.819524564E0
2.448175002E0,3.064578176E-1,-9.576806426E-2,9.854534149E0,9.859763243E0
2.453210396E0,2.585737705E-1,-9.576806426E-2,9.835380554E0,9.839245020E0
2.458245790E0,3.064578176E-1,-1.053448766E-1,9.902418137E0,9.907719157E0
2.463250667E0,3.064578176E-1,-4.788403213E-2,9.825803757E0,9.830698283E0
2.468286061E0,2.968810201E-1,-2.873042040E-2,9.844957352E0,9.849474556E0
2.473321455E0,2.489969730E-1,-1.340752989E-1,9.873687744E0,9.877736854E0
2.478356849E0,2.777273953E-1,-1.436520964E-1,9.825803757E0,9.830777584E0
2.483361726E0,2.777273953E-1,-7.661445439E-2,9.854534149E0,9.858744625E0
2.488397121E0,3.351882398E-1,-1.149216816E-1,9.816226959E0,9.822620316E0
2.493432515E0,2.202665508E-1,-6.703764945E-2,9.835380554E0,9.838075119E0
2.498437392E0,3.351882398E-1,-9.576806426E-2,9.854534149E0,9.860698047E0
2.503472785E0,3.160346150E-1,-7.661445439E-2,9.825803757E0,9.831183404E0
2.508508180E0,1.819593310E-1,-4.788403213E-2,9.816226959E0,9.818030036E0
2.513543574E0,2.202665508E-1,0.000000000E0,9.902418137E0,9.904867607E0
2.518548451E0,2.681505978E-1,-9.576806426E-2,9.844957352E0,9.849074145E0
2.523583845E0,2.202665508E-1,-7.661445439E-2,9.816226959E0,9.818996835E0
2.528619240E0,2.202665508E-1,-7.661445439E-2,9.921571732E0,9.924312206E0
2.533654634E0,3.256114423E-1,-6.703764945E-2,9.844957352E0,9.850568619E0
2.538659510E0,2.681505978E-1,-6.703764945E-2,9.883264542E0,9.887128845E0
2.543694904E0,2.873041928E-1,-3.830722719E-2,9.892841339E0,9.897086486E0
2.548730298E0,2.585737705E-1,-8.619125932E-2,9.873687744E0,9.877449013E0
2.553765693E0,2.394201756E-1,-4.788403213E-2,9.854534149E0,9.857558430E0
2.558770570E0,2.106897533E-1,-2.873042040E-2,9.892841339E0,9.895126344E0
2.563805964E0,2.968810201E-1,-4.788403213E-2,9.883264542E0,9.887838450E0
2.568841358E0,2.106897533E-1,-3.830722719E-2,9.873687744E0,9.876009684E0
2.573876752E0,3.447650373E-1,-6.703764945E-2,9.835380554E0,9.841649639E0
2.578881629E0,2.968810201E-1,-4.788403213E-2,9.844957352E0,9.849549049E0
2.583917023E0,2.585737705E-1,-8.619125932E-2,9.835380554E0,9.839156467E0
2.588952417E0,2.298433632E-1,-3.830722719E-2,9.835380554E0,9.838140376E0
2.593987812E0,2.202665508E-1,-1.244984865E-1,9.797073364E0,9.800339980E0
2.598992689E0,2.777273953E-1,-3.830722719E-2,9.883264542E0,9.887240158E0
2.604028083E0,2.489969730E-1,-6.703764945E-2,9.825803757E0,9.829186793E0
2.609063476E0,2.968810201E-1,-1.244984865E-1,9.854534149E0,9.859791149E0
2.614098871E0,2.585737705E-1,-7.661445439E-2,9.816226959E0,9.819930849E0
2.619103748E0,2.394201756E-1,-7.661445439E-2,9.835380554E0,9.838592503E0
2.624139142E0,2.585737705E-1,-1.053448766E-1,9.873687744E0,9.877634717E0
2.629174536E0,2.202665508E-1,-1.149216816E-1,9.883264542E0,9.886386718E0
2.634209931E0,2.585737705E-1,-7.661445439E-2,9.854534149E0,9.858223647E0
2.639214808E0,2.777273953E-1,-5.746084079E-2,9.825803757E0,9.829895916E0
2.644250201E0,2.873041928E-1,-4.788403213E-2,9.902418137E0,9.906700840E0
2.649285595E0,2.394201756E-1,-2.873042040E-2,9.825803757E0,9.828762227E0
2.654320990E0,2.777273953E-1,-4.788403213E-2,9.892841339E0,9.896854811E0
2.659325867E0,2.489969730E-1,-5.746084079E-2,9.844957352E0,9.848273275E0
2.664361261E0,2.681505978E-1,-6.703764945E-2,9.921571732E0,9.925421120E0
2.669396655E0,2.394201756E-1,-6.703764945E-2,9.883264542E0,9.886391357E0
2.674432050E0,2.202665508E-1,-7.661445439E-2,9.854534149E0,9.857293261E0
2.679436926E0,2.585737705E-1,-6.703764945E-2,9.902418137E0,9.906020361E0
2.684472320E0,3.064578176E-1,-1.244984865E-1,9.873687744E0,9.879226991E0
2.689507714E0,2.585737705E-1,-5.746084079E-2,9.902418137E0,9.905960180E0
2.694543109E0,2.585737705E-1,-9.576806426E-2,9.873687744E0,9.877537223E0
2.699547986E0,2.298433632E-1,-3.830722719E-2,9.902418137E0,9.905159280E0
2.704583380E0,2.968810201E-1,-6.703764945E-2,9.854534149E0,9.859233017E0
2.709618774E0,2.681505978E-1,-4.788403213E-2,9.825803757E0,9.829578683E0
2.714654168E0,2.777273953E-1,-4.788403213E-2,9.816226959E0,9.820271743E0
2.719659045E0,2.585737705E-1,-1.915361360E-2,9.883264542E0,9.886665022E0
2.724694439E0,2.394201756E-1,-9.576806426E-2,9.854534149E0,9.857907326E0
2.729729833E0,2.489969730E-1,-1.340752989E-1,9.835380554E0,9.839445428E0
2.734765228E0,2.394201756E-1,-2.873042040E-2,9.825803757E0,9.828762227E0
2.739770105E0,2.585737705E-1,-3.830722719E-2,9.825803757E0,9.829280101E0
2.744805499E0,2.968810201E-1,-1.244984865E-1,9.883264542E0,9.888506268E0
2.749840892E0,3.160346150E-1,-1.436520964E-1,9.883264542E0,9.889359524E0
2.754876287E0,2.202665508E-1,-7.661445439E-2,9.844957352E0,9.847719146E0
2.759881164E0,2.968810201E-1,-4.788403213E-2,9.816226959E0,9.820832090E0
2.764916558E0,3.064578176E-1,-1.915361360E-2,9.864110947E0,9.868888895E0
2.769951952E0,3.256114423E-1,-3.830722719E-2,9.768342972E0,9.773843393E0
2.774987347E0,2.873041928E-1,-5.746084079E-2,9.854534149E0,9.858888819E0
2.779992224E0,2.968810201E-1,-1.340752989E-1,9.892841339E0,9.898203084E0
2.785027618E0,2.585737705E-1,-1.244984865E-1,9.844957352E0,9.849139329E0
2.790063011E0,2.681505978E-1,-5.746084079E-2,9.883264542E0,9.887068549E0
2.795098406E0,2.298433632E-1,-2.873042040E-2,9.883264542E0,9.885978526E0
2.800103283E0,2.585737705E-1,-9.576806426E-2,9.825803757E0,9.829671988E0
2.805138677E0,2.489969730E-1,-4.788403213E-2,9.825803757E0,9.829074821E0
2.810174071E0,2.011129409E-1,-6.703764945E-2,9.844957352E0,9.847239497E0
2.815209466E0,2.106897533E-1,-2.873042040E-2,9.873687744E0,9.875977181E0
2.820244859E0,2.777273953E-1,-1.149216816E-1,9.854534149E0,9.859116735E0
2.825249736E0,2.489969730E-1,-6.703764945E-2,9.835380554E0,9.838760297E0
2.830285130E0,2.202665508E-1,-3.830722719E-2,9.864110947E0,9.866644291E0
2.835320525E0,2.681505978E-1,-5.746084079E-2,9.864110947E0,9.867922338E0
2.840355919E0,2.011129409E-1,-1.149216816E-1,9.844957352E0,9.847681893E0
2.845391313E0,2.873041928E-1,-6.703764945E-2,9.873687744E0,9.878094321E0
2.850396190E0,2.489969730E-1,-6.703764945E-2,9.844957352E0,9.848333808E0
2.855431585E0,2.777273953E-1,-7.661445439E-2,9.816226959E0,9.820453859E0
2.860466978E0,2.489969730E-1,-3.830722719E-2,9.864110947E0,9.867327485E0
2.865502372E0,2.968810201E-1,-8.619125932E-2,9.806650162E0,9.811521527E0
2.870507249E0,2.106897533E-1,-1.436520964E-1,9.864110947E0,9.867406491E0
2.875542644E0,3.064578176E-1,-7.661445439E-2,9.787496567E0,9.792592875E0
2.880578038E0,2.585737705E-1,-1.149216816E-1,9.835380554E0,9.839450088E0
2.885613432E0,2.777273953E-1,-1.340752989E-1,9.806650162E0,9.811498157E0
2.890648827E0,2.681505978E-1,-6.703764945E-2,9.816226959E0,9.820117642E0
2.895653703E0,2.298433632E-1,-2.873042040E-2,9.825803757E0,9.828533608E0
2.900689097E0,2.968810201E-1,-2.873042040E-2,9.777919769E0,9.782467930E0
2.905724491E0,2.777273953E-1,-5.746084079E-2,9.911994934E0,9.916051524E0
2.910759886E0,2.298433632E-1,-1.053448766E-1,9.854534149E0,9.857777073E0
2.915764763E0,2.011129409E-1,-8.619125932E-2,9.911994934E0,9.914409661E0
2.920800157E0,2.585737705E-1,-1.053448766E-1,9.844957352E0,9.848915839E0
2.925835551E0,2.968810201E-1,-6.703764945E-2,9.844957352E0,9.849660788E0
2.930870945E0,2.298433632E-1,-6.703764945E-2,9.797073364E0,9.799998394E0
2.935906339E0,3.064578176E-1,-1.053448766E-1,9.902418137E0,9.907719157E0
2.940911216E0,1.915361285E-1,-1.532289088E-1,9.825803757E0,9.828864871E0
2.945946610E0,2.777273953E-1,-9.576806426E-2,9.825803757E0,9.830194479E0
2.950982005E0,2.394201756E-1,-1.340752989E-1,9.854534149E0,9.858353894E0
2.955986882E0,2.873041928E-1,-9.576806426E-2,9.816226959E0,9.820897461E0
2.961022276E0,2.681505978E-1,-6.703764945E-2,9.816226959E0,9.820117642E0
2.966057669E0,2.968810201E-1,-9.576806426E-2,9.844957352E0,9.849898229E0
2.971093064E0,2.011129409E-1,-1.053448766E-1,9.806650162E0,9.809277820E0
2.976097941E0,3.064578176E-1,-1.053448766E-1,9.883264542E0,9.888575830E0
2.981133335E0,3.064578176E-1,-1.053448766E-1,9.864110947E0,9.869432542E0
2.986168729E0,2.011129409E-1,-1.915361360E-2,9.816226959E0,9.818305607E0
2.991204124E0,2.394201756E-1,-9.576806426E-2,9.873687744E0,9.877054379E0
2.996209001E0,2.873041928E-1,-9.576806426E-2,9.864110947E0,9.868758787E0
3.001244394E0,2.681505978E-1,-2.873042040E-2,9.825803757E0,9.829504039E0
3.006279788E0,3.351882398E-1,-9.576806426E-2,9.835380554E0,9.841556448E0
3.011284665E0,2.681505978E-1,-5.746084079E-2,9.921571732E0,9.925361057E0
3.016320060E0,2.681505978E-1,-6.703764945E-2,9.883264542E0,9.887128845E0
3.021355454E0,2.873041928E-1,-5.746084079E-2,9.873687744E0,9.878033970E0
3.026390848E0,2.873041928E-1,-6.703764945E-2,9.854534149E0,9.858949287E0
3.031395725E0,2.011129409E-1,-9.576806426E-2,9.902418137E0,9.904923164E0
3.036431119E0,2.298433632E-1,-6.703764945E-2,9.911994934E0,9.914886060E0
3.041466513E0,2.585737705E-1,-5.746084079E-2,9.911994934E0,9.915533557E0
3.046501907E0,3.160346150E-1,-8.619125932E-2,9.873687744E0,9.879120228E0
3.051506784E0,2.585737705E-1,-6.703764945E-2,9.873687744E0,9.877300446E0
3.056542178E0,2.489969730E-1,-1.915361360E-2,9.806650162E0,9.809829445E0
3.061577573E0,2.873041928E-1,-1.436520964E-1,9.864110947E0,9.869339613E0
3.066612967E0,2.106897533E-1,-1.244984865E-1,9.864110947E0,9.867146235E0
3.071617843E0,2.681505978E-1,-8.619125932E-2,9.911994934E0,9.915996029E0
3.076653237E0,2.777273953E-1,-5.746084079E-2,9.835380554E0,9.839468731E0
3.081688632E0,2.777273953E-1,-5.746084079E-2,9.921571732E0,9.925624408E0
3.086693509E0,3.064578176E-1,-7.661445439E-2,9.883264542E0,9.888311492E0
3.091728903E0,3.064578176E-1,-7.661445439E-2,9.777919769E0,9.783021066E0
3.096764297E0,2.585737705E-1,-1.915361360E-2,9.806650162E0,9.810077199E0
3.101799692E0,3.064578176E-1,-1.053448766E-1,9.844957352E0,9.850289295E0
3.106804569E0,2.202665508E-1,-8.619125932E-2,9.816226959E0,9.819076230E0
3.111839962E0,2.777273953E-1,-1.149216816E-1,9.864110947E0,9.868689086E0
3.116875356E0,2.298433632E-1,-9.576806799E-3,9.883264542E0,9.885941416E0
3.121910751E0,2.777273953E-1,-2.873042040E-2,9.854534149E0,9.858488791E0
3.126915628E0,2.681505978E-1,-5.746084079E-2,9.921571732E0,9.925361057E0
3.131951022E0,2.681505978E-1,-3.830722719E-2,9.844957352E0,9.848683031E0
3.136986416E0,2.968810201E-1,-6.703764945E-2,9.854534149E0,9.859233017E0
3.142021810E0,2.394201756E-1,-6.703764945E-2,9.902418137E0,9.905538906E0
3.147026687E0,2.968810201E-1,-8.619125932E-2,9.864110947E0,9.868953949E0
3.152062081E0,2.011129409E-1,-1.340752989E-1,9.892841339E0,9.895793670E0
3.157097475E0,2.873041928E-1,-1.053448766E-1,9.892841339E0,9.897572985E0
3.162132870E0,2.873041928E-1,-7.661445439E-2,9.854534149E0,9.859019057E0
3.167137747E0,2.968810201E-1,-6.703764945E-2,9.758766174E0,9.763511132E0
3.172173141E0,2.585737705E-1,-8.619125932E-2,9.844957352E0,9.848729592E0
3.177208535E0,2.202665508E-1,-8.619125932E-2,9.816226959E0,9.819076230E0
3.182213411E0,2.681505978E-1,-1.053448766E-1,9.854534149E0,9.858744625E0
3.187248806E0,3.160346150E-1,-6.703764945E-2,9.950302124E0,9.955545404E0
3.192284200E0,3.064578176E-1,-6.703764945E-2,9.825803757E0,9.830810236E0
3.197319594E0,2.394201756E-1,-7.661445439E-2,9.787496567E0,9.790724224E0
3.202324471E0,2.489969730E-1,-7.661445439E-2,9.806650162E0,9.810109921E0
3.207359866E0,3.160346150E-1,-1.436520964E-1,9.864110947E0,9.870217757E0
3.212395260E0,2.873041928E-1,-8.619125932E-2,9.806650162E0,9.811236417E0
3.217430653E0,2.394201756E-1,-6.703764945E-2,9.835380554E0,9.838522588E0
3.222435530E0,2.681505978E-1,-1.149216816E-1,9.864110947E0,9.868424216E0
3.227470925E0,2.681505978E-1,-1.149216816E-1,9.873687744E0,9.877996832E0
3.232506319E0,2.681505978E-1,-7.661445439E-2,9.844957352E0,9.848906527E0
3.237541713E0,2.011129409E-1,-8.619125932E-2,9.892841339E0,9.895260740E0
3.242546590E0,2.394201756E-1,-8.619125932E-2,9.911994934E0,9.915260689E0
3.247581985E0,2.585737705E-1,-9.576806426E-2,9.854534149E0,9.858391107E0
3.252617378E0,3.160346150E-1,-5.746084079E-2,9.854534149E0,9.859767894E0
3.257652772E0,2.777273953E-1,-6.703764945E-2,9.892841339E0,9.896966016E0
3.262657649E0,2.681505978E-1,-9.576806426E-2,9.864110947E0,9.868219750E0
3.267693044E0,2.681505978E-1,-5.746084079E-2,9.864110947E0,9.867922338E0
3.272728438E0,2.585737705E-1,-5.746084079E-2,9.883264542E0,9.886813447E0
3.277733315E0,2.585737705E-1,-5.746084079E-2,9.911994934E0,9.915533557E0
3.282768709E0,2.777273953E-1,-5.746084079E-2,9.777919769E0,9.782031960E0
3.287804103E0,2.585737705E-1,-3.830722719E-2,9.768342972E0,9.771839758E0
3.292839497E0,2.489969730E-1,-3.830722719E-2,9.806650162E0,9.809885541E0
3.297844374E0,2.777273953E-1,-3.830722719E-2,9.835380554E0,9.839375519E0
3.302879768E0,3.351882398E-1,-7.661445439E-2,9.816226959E0,9.822246823E0
3.307915163E0,3.256114423E-1,-6.703764945E-2,9.854534149E0,9.860139966E0
3.312950557E0,2.298433632E-1,-7.661445439E-2,9.844957352E0,9.847938008E0
3.317955434E0,2.873041928E-1,-4.788403213E-2,9.835380554E0,9.839692436E0
3.322990827E0,2.011129409E-1,-1.915361360E-2,9.911994934E0,9.914053502E0
3.328026221E0,2.873041928E-1,-8.619125932E-2,9.844957352E0,9.849525770E0
3.333061616E0,3.160346150E-1,-7.661445439E-2,9.883264542E0,9.888612929E0
3.338066493E0,2.873041928E-1,-1.149216816E-1,9.892841339E0,9.897679549E0
3.343101887E0,2.011129409E-1,-8.619125932E-2,9.825803757E0,9.828239660E0
3.348137281E0,2.298433632E-1,-5.746084079E-2,9.835380554E0,9.838233600E0
3.353142158E0,2.585737705E-1,-7.661445439E-2,9.835380554E0,9.839077234E0
3.358177552E0,2.011129409E-1,-8.619125932E-2,9.902418137E0,9.904835198E0
3.363212946E0,2.777273953E-1,-9.576806426E-2,9.806650162E0,9.811049456E0
3.368248340E0,2.489969730E-1,-1.149216816E-1,9.864110947E0,9.867922337E0
3.373253217E0,2.681505978E-1,-6.703764945E-2,9.844957352E0,9.848836685E0
3.378288612E0,2.585737705E-1,-4.788403213E-2,9.806650162E0,9.810175364E0
3.383324006E0,3.256114423E-1,-8.619125932E-2,9.892841339E0,9.898573711E0
3.388359400E0,1.915361285E-1,-1.340752989E-1,9.844957352E0,9.847733116E0
3.393364277E0,2.968810201E-1,-5.746084079E-2,9.864110947E0,9.868744847E0
3.398399671E0,1.723825186E-1,-8.619125932E-2,9.911994934E0,9.913868480E0
3.403435065E0,2.968810201E-1,-7.661445439E-2,9.864110947E0,9.868874955E0
3.408470459E0,2.298433632E-1,-4.788403213E-2,9.911994934E0,9.914775057E0
3.413475336E0,2.106897533E-1,-1.915361360E-2,9.864110947E0,9.866379366E0
3.418510731E0,2.298433632E-1,-3.830722719E-2,9.787496567E0,9.790269887E0
3.423546125E0,3.064578176E-1,-7.661445439E-2,9.835380554E0,9.840452064E0
3.428551002E0,2.394201756E-1,-7.661445439E-2,9.854534149E0,9.857739857E0
3.433586395E0,2.681505978E-1,-5.746084079E-2,9.864110947E0,9.867922338E0
3.438621790E0,3.160346150E-1,-8.619125932E-2,9.825803757E0,9.831262700E0
3.443657184E0,2.298433632E-1,-6.703764945E-2,9.873687744E0,9.876590084E0
3.448662061E0,2.777273953E-1,-4.788403213E-2,9.844957352E0,9.848990336E0
3.453697455E0,2.681505978E-1,-9.576806426E-2,9.749189377E0,9.753346593E0
3.458732850E0,2.489969730E-1,-4.788403213E-2,9.816226959E0,9.819501214E0
3.463768244E0,3.160346150E-1,-5.746084079E-2,9.844957352E0,9.850196185E0
3.468773120E0,2.681505978E-1,-8.619125932E-2,9.902418137E0,9.906423100E0
3.473808514E0,3.064578176E-1,-6.703764945E-2,9.816226959E0,9.821238321E0
3.478843909E0,2.873041928E-1,-4.788403213E-2,9.844957352E0,9.849265040E0
3.483848785E0,2.489969730E-1,-4.788403213E-2,9.902418137E0,9.905663901E0
3.488884180E0,2.681505978E-1,-6.703764945E-2,9.797073364E0,9.800971651E0
3.493919574E0,2.681505978E-1,-1.244984865E-1,9.768342972E0,9.772815819E0
3.498954969E0,2.585737705E-1,-1.053448766E-1,9.835380554E0,9.839342894E0
3.503959844E0,3.351882398E-1,-6.703764945E-2,9.883264542E0,9.889174040E0
3.508995239E0,2.777273953E-1,-1.149216816E-1,9.892841339E0,9.897406188E0
3.514030633E0,3.160346150E-1,-1.915361360E-2,9.844957352E0,9.850047208E0
3.519066028E0,2.681505978E-1,-3.830722719E-2,9.883264542E0,9.886975786E0
3.524070904E0,2.489969730E-1,-8.619125932E-2,9.864110947E0,9.867629563E0
3.529106299E0,2.681505978E-1,-5.746084079E-2,9.854534149E0,9.858349243E0
3.534141693E0,2.968810201E-1,-8.619125932E-2,9.883264542E0,9.888098163E0
3.539177087E0,3.256114423E-1,-1.149216816E-1,9.902418137E0,9.908436544E0
3.544181963E0,3.256114423E-1,-1.053448766E-1,9.835380554E0,9.841332786E0
3.549217358E0,2.489969730E-1,-1.053448766E-1,9.825803757E0,9.829522700E0
3.554252752E0,2.873041928E-1,-8.619125932E-2,9.854534149E0,9.859098130E0
3.559257629E0,2.394201756E-1,-8.619125932E-2,9.816226959E0,9.819524564E0
3.564293023E0,3.064578176E-1,-9.576806426E-2,9.873687744E0,9.878906700E0
3.569328418E0,3.351882398E-1,-7.661445439E-2,9.864110947E0,9.870101605E0
3.574363811E0,2.681505978E-1,-7.661445439E-2,9.835380554E0,9.839333573E0
3.579368688E0,2.873041928E-1,-1.053448766E-1,9.854534149E0,9.859284180E0
3.584404082E0,2.011129409E-1,-1.053448766E-1,9.911994934E0,9.914594673E0
3.589439477E0,2.681505978E-1,-9.576806426E-2,9.854534149E0,9.858646944E0
3.594474871E0,2.011129409E-1,-8.619125932E-2,9.854534149E0,9.856962952E0
3.599479748E0,2.681505978E-1,-9.576806426E-2,9.921571732E0,9.925656749E0
3.604515142E0,2.394201756E-1,-7.661445439E-2,9.749189377E0,9.752429713E0
3.609550536E0,3.160346150E-1,-5.746084079E-2,9.873687744E0,9.878911342E0
3.614555413E0,2.394201756E-1,-1.053448766E-1,9.883264542E0,9.886725321E0
3.619590807E0,2.777273953E-1,-1.149216816E-1,9.873687744E0,9.878261445E0
3.624626201E0,2.777273953E-1,-6.703764945E-2,9.911994934E0,9.916111643E0
3.629661596E0,2.011129409E-1,-4.788403213E-2,9.854534149E0,9.856702420E0
3.634666472E0,2.106897533E-1,-9.576806426E-2,9.892841339E0,9.895548062E0
3.639701867E0,3.160346150E-1,-2.873042040E-2,9.825803757E0,9.830926853E0
3.644737260E0,2.394201756E-1,-4.788403213E-2,9.864110947E0,9.867132292E0
3.649772655E0,2.873041928E-1,-6.703764945E-2,9.844957352E0,9.849376782E0
3.654777531E0,2.873041928E-1,-9.576806426E-2,9.844957352E0,9.849614230E0
3.659812926E0,2.681505978E-1,-9.576806799E-3,9.892841339E0,9.896479486E0
3.664848320E0,2.873041928E-1,-8.619125932E-2,9.873687744E0,9.878242875E0
3.669883715E0,2.681505978E-1,-5.746084079E-2,9.902418137E0,9.906214789E0
3.674888591E0,1.915361285E-1,-8.619125932E-2,9.835380554E0,9.837622968E0
3.679923986E0,2.489969730E-1,-1.149216816E-1,9.835380554E0,9.839203074E0
3.684959379E0,2.202665508E-1,-4.788403213E-2,9.825803757E0,9.828388968E0
3.689964256E0,2.298433632E-1,-6.703764945E-2,9.825803757E0,9.828720236E0
3.694999650E0,2.489969730E-1,-6.703764945E-2,9.873687744E0,9.877054379E0
3.700035045E0,2.106897533E-1,-4.788403213E-2,9.835380554E0,9.837753488E0
3.705070439E0,2.777273953E-1,-4.788403213E-2,9.844957352E0,9.848990336E0
3.710075316E0,2.873041928E-1,-4.788403213E-2,9.835380554E0,9.839692436E0
3.715110710E0,2.681505978E-1,-7.661445439E-2,9.921571732E0,9.925490423E0
3.720146104E0,2.777273953E-1,-7.661445439E-2,9.902418137E0,9.906608261E0
3.725181498E0,2.298433632E-1,-6.703764945E-2,9.864110947E0,9.867016103E0
3.730186375E0,2.585737705E-1,-7.661445439E-2,9.864110947E0,9.867796863E0
3.735221769E0,1.915361285E-1,-6.703764945E-2,9.883264542E0,9.885347649E0
3.740257164E0,2.394201756E-1,-5.746084079E-2,9.844957352E0,9.848035795E0
3.745292558E0,3.256114423E-1,-1.149216816E-1,9.797073364E0,9.803156446E0
3.750297435E0,2.968810201E-1,-9.576806426E-2,9.902418137E0,9.907330358E0
3.755332828E0,2.681505978E-1,-5.746084079E-2,9.854534149E0,9.858349243E0
3.760368223E0,2.777273953E-1,-1.053448766E-1,9.825803757E0,9.830292443E0
3.765373100E0,2.873041928E-1,-8.619125932E-2,9.854534149E0,9.859098130E0
3.770408494E0,2.202665508E-1,-1.340752989E-1,9.835380554E0,9.838760297E0
3.775443888E0,2.489969730E-1,-7.661445439E-2,9.797073364E0,9.800536504E0
3.780479283E0,2.202665508E-1,-6.703764945E-2,9.854534149E0,9.857223478E0
3.785484160E0,2.681505978E-1,-5.746084079E-2,9.864110947E0,9.867922338E0
3.790519553E0,2.585737705E-1,-1.915361360E-2,9.844957352E0,9.848371059E0
3.795554947E0,3.160346150E-1,-9.576806426E-2,9.883264542E0,9.888779874E0
3.800590342E0,2.585737705E-1,-7.661445439E-2,9.892841339E0,9.896516555E0
3.805595219E0,2.106897533E-1,-8.619125932E-2,9.873687744E0,9.876311496E0
3.810630613E0,2.681505978E-1,-1.053448766E-1,9.835380554E0,9.839599226E0
3.815666007E0,2.681505978E-1,-1.149216816E-1,9.816226959E0,9.820561259E0
3.820670884E0,2.394201756E-1,-8.619125932E-2,9.864110947E0,9.867392549E0
3.825706278E0,3.256114423E-1,-5.746084079E-2,9.844957352E0,9.850508099E0
3.830741672E0,2.585737705E-1,-7.661445439E-2,9.873687744E0,9.877370087E0
3.835777066E0,2.202665508E-1,-6.703764945E-2,9.854534149E0,9.857223478E0
3.840781943E0,2.394201756E-1,-9.576806426E-2,9.816226959E0,9.819613295E0
3.845817338E0,2.011129409E-1,-1.915361360E-2,9.816226959E0,9.818305607E0
3.850852732E0,2.298433632E-1,-7.661445439E-2,9.902418137E0,9.905381502E0
3.855888126E0,2.489969730E-1,-1.915361360E-2,9.854534149E0,9.857697989E0
3.860923520E0,2.585737705E-1,-8.619125932E-2,9.835380554E0,9.839156467E0
3.865958914E0,1.340752989E-1,-7.661445439E-2,9.911994934E0,9.913197745E0
3.870994308E0,2.873041928E-1,-1.053448766E-1,9.864110947E0,9.868856368E0
3.875999185E0,2.489969730E-1,-9.576806426E-2,9.835380554E0,9.838998001E0
3.881034580E0,2.394201756E-1,-6.703764945E-2,9.806650162E0,9.809801398E0
3.886069974E0,2.968810201E-1,-1.244984865E-1,9.902418137E0,9.907649730E0
3.891074851E0,2.489969730E-1,-9.576806426E-2,9.844957352E0,9.848571281E0
3.896110244E0,2.202665508E-1,-9.576806426E-2,9.787496567E0,9.790443193E0
3.901145639E0,2.106897533E-1,-1.053448766E-1,9.825803757E0,9.828626922E0
3.906181033E0,2.202665508E-1,-1.053448766E-1,9.825803757E0,9.828836877E0
3.911185910E0,2.681505978E-1,-6.703764945E-2,9.825803757E0,9.829690649E0
3.916221304E0,2.394201756E-1,-7.661445439E-2,9.892841339E0,9.896034638E0
3.921256699E0,2.489969730E-1,-8.619125932E-2,9.940725327E0,9.944216834E0
3.926292093E0,2.394201756E-1,-9.576806426E-2,9.797073364E0,9.800466318E0
3.931296969E0,2.011129409E-1,-1.149216816E-1,9.864110947E0,9.866830199E0
3.936332363E0,2.681505978E-1,-1.340752989E-1,9.864110947E0,9.868665852E0
3.941367758E0,3.064578176E-1,-5.746084079E-2,9.806650162E0,9.811605655E0
3.946403152E0,2.585737705E-1,-4.788403213E-2,9.844957352E0,9.848468842E0
3.951408029E0,2.777273953E-1,-7.661445439E-2,9.864110947E0,9.868317336E0
3.956443423E0,2.777273953E-1,-6.703764945E-2,9.816226959E0,9.820383815E0
3.961478818E0,2.489969730E-1,-7.661445439E-2,9.854534149E0,9.857977103E0
3.966514211E0,2.394201756E-1,-1.244984865E-1,9.844957352E0,9.848655093E0
3.971519088E0,3.064578176E-1,-1.149216816E-1,9.844957352E0,9.850396370E0
3.976554482E0,2.968810201E-1,-7.661445439E-2,9.844957352E0,9.849730624E0
3.981589877E0,2.394201756E-1,-1.244984865E-1,9.883264542E0,9.886947956E0
3.986625271E0,2.298433632E-1,-8.619125932E-2,9.864110947E0,9.867164824E0
3.991630148E0,2.202665508E-1,-7.661445439E-2,9.892841339E0,9.895589770E0
3.996665542E0,2.681505978E-1,-1.149216816E-1,9.854534149E0,9.858851608E0
4.001700936E0,2.394201756E-1,-1.149216816E-1,9.835380554E0,9.838965375E0
4.006736330E0,3.351882398E-1,-8.619125932E-2,9.911994934E0,9.918035272E0
4.011741207E0,2.681505978E-1,-1.244984865E-1,9.835380554E0,9.839822928E0
4.016776601E0,2.298433632E-1,-3.830722719E-2,9.873687744E0,9.876436862E0
4.021811996E0,2.585737705E-1,-8.619125932E-2,9.873687744E0,9.877449013E0
4.026847390E0,3.064578176E-1,-9.576806799E-3,9.806650162E0,9.811442071E0
4.031852267E0,2.873041928E-1,-6.703764945E-2,9.806650162E0,9.811086848E0
4.036887661E0,3.064578176E-1,-1.149216816E-1,9.864110947E0,9.869539409E0
4.041923055E0,2.777273953E-1,-7.661445439E-2,9.864110947E0,9.868317336E0
4.046958449E0,2.681505978E-1,-1.053448766E-1,9.902418137E0,9.906608261E0
4.051963326E0,3.447650373E-1,-1.244984865E-1,9.854534149E0,9.861349101E0
4.056998720E0,3.351882398E-1,-7.661445439E-2,9.921571732E0,9.927527716E0
4.062034115E0,2.681505978E-1,-1.149216816E-1,9.864110947E0,9.868424216E0
4.067069509E0,2.394201756E-1,-8.619125932E-2,9.835380554E0,9.838671740E0
4.072074386E0,2.777273953E-1,-7.661445439E-2,9.873687744E0,9.877890056E0
4.077109779E0,3.064578176E-1,-7.661445439E-2,9.835380554E0,9.840452064E0
4.082145174E0,2.585737705E-1,-4.788403213E-2,9.797073364E0,9.800602011E0
4.087180568E0,2.873041928E-1,-5.746084079E-2,9.825803757E0,9.830171154E0
4.092185445E0,2.585737705E-1,-3.830722719E-2,9.835380554E0,9.838853515E0
4.097220839E0,2.489969730E-1,-9.576806799E-3,9.873687744E0,9.876831520E0
4.102256234E0,2.681505978E-1,-7.661445439E-2,9.835380554E0,9.839333573E0
4.107291628E0,2.489969730E-1,-7.661445439E-2,9.873687744E0,9.877124021E0
4.112296504E0,2.394201756E-1,-5.746084079E-2,9.883264542E0,9.886331057E0
4.117331898E0,2.777273953E-1,-6.703764945E-2,9.825803757E0,9.829956562E0
4.122367293E0,2.394201756E-1,-1.532289088E-1,9.835380554E0,9.839487373E0
4.127402687E0,2.298433632E-1,-1.053448766E-1,9.873687744E0,9.876924379E0
4.132438081E0,2.298433632E-1,-7.661445439E-2,9.844957352E0,9.847938008E0
4.137442958E0,2.202665508E-1,-5.746084079E-2,9.883264542E0,9.885885752E0
4.142478352E0,3.256114423E-1,-1.053448766E-1,9.902418137E0,9.908330097E0
4.147513746E0,3.064578176E-1,-9.576806426E-2,9.854534149E0,9.859763243E0
4.152549140E0,2.777273953E-1,-1.244984865E-1,9.797073364E0,9.801799778E0
4.157554017E0,2.681505978E-1,-4.788403213E-2,9.864110947E0,9.867871219E0
4.162589411E0,3.064578176E-1,-1.149216816E-1,9.844957352E0,9.850396370E0
4.167624806E0,2.681505978E-1,9.576806799E-3,9.787496567E0,9.791173857E0
4.172660200E0,2.489969730E-1,-4.788403213E-2,9.864110947E0,9.867369312E0
4.177665077E0,2.777273953E-1,-1.436520964E-1,9.873687744E0,9.878637462E0
4.182700470E0,2.394201756E-1,-4.788403213E-2,9.864110947E0,9.867132292E0
4.187735865E0,2.585737705E-1,-6.703764945E-2,9.825803757E0,9.829434058E0
4.192771259E0,2.202665508E-1,-2.873042040E-2,9.844957352E0,9.847463026E0
4.197776136E0,2.968810201E-1,-4.788403213E-2,9.854534149E0,9.859121387E0
4.202811530E0,2.489969730E-1,-7.661445439E-2,9.816226959E0,9.819683344E0
4.207846925E0,2.681505978E-1,-1.340752989E-1,9.797073364E0,9.801659422E0
4.212882319E0,2.489969730E-1,-4.788403213E-2,9.873687744E0,9.876942950E0
4.217887195E0,2.777273953E-1,-5.746084079E-2,9.797073364E0,9.801177519E0
4.222922589E0,2.777273953E-1,-6.703764945E-2,9.883264542E0,9.887393213E0
4.227957984E0,3.447650373E-1,-9.576806799E-3,9.854534149E0,9.860567831E0
4.232993378E0,2.873041928E-1,-8.619125932E-2,9.844957352E0,9.849525770E0
4.237998255E0,2.777273953E-1,-2.873042040E-2,9.883264542E0,9.887207692E0
4.243033649E0,2.585737705E-1,0.000000000E0,9.854534149E0,9.857925933E0
4.248069044E0,2.298433632E-1,-1.149216816E-1,9.902418137E0,9.905751860E0
4.253104437E0,2.585737705E-1,-4.788403213E-2,9.902418137E0,9.905909258E0
4.258139832E0,2.394201756E-1,-1.053448766E-1,9.854534149E0,9.858005014E0
4.263144708E0,2.777273953E-1,-1.149216816E-1,9.883264542E0,9.887833812E0
4.268180103E0,2.394201756E-1,-9.576806426E-2,9.806650162E0,9.810039803E0
4.273215497E0,2.202665508E-1,-9.576806426E-2,9.844957352E0,9.847886785E0
4.278220374E0,2.489969730E-1,-9.576806426E-2,9.864110947E0,9.867717861E0
4.283255768E0,3.064578176E-1,-9.576806426E-2,9.854534149E0,9.859763243E0
4.288291162E0,2.681505978E-1,-3.830722719E-2,9.854534149E0,9.858256209E0
4.293326556E0,2.777273953E-1,-3.830722719E-2,9.883264542E0,9.887240158E0
4.298361951E0,2.489969730E-1,-5.746084079E-2,9.825803757E0,9.829126142E0
4.303366827E0,2.585737705E-1,-1.053448766E-1,9.931148529E0,9.935072674E0
4.308402222E0,2.873041928E-1,-9.576806426E-2,9.854534149E0,9.859186504E0
4.313437616E0,1.819593310E-1,-4.788403213E-2,9.835380554E0,9.837180121E0
4.318473011E0,2.394201756E-1,-1.149216816E-1,9.854534149E0,9.858112005E0
4.323477886E0,2.968810201E-1,-1.532289088E-1,9.883264542E0,9.888909719E0
4.328513281E0,2.106897533E-1,-6.703764945E-2,9.892841339E0,9.895311717E0
4.333548675E0,2.873041928E-1,-2.873042040E-2,9.787496567E0,9.791754602E0
4.338584070E0,2.873041928E-1,-1.340752989E-1,9.864110947E0,9.869204864E0
4.343588946E0,3.064578176E-1,-1.053448766E-1,9.854534149E0,9.859860914E0
4.348624341E0,2.777273953E-1,-4.788403213E-2,9.844957352E0,9.848990336E0
4.353659735E0,2.298433632E-1,-1.053448766E-1,9.883264542E0,9.886498041E0
4.358695129E0,2.106897533E-1,-1.053448766E-1,9.854534149E0,9.857349086E0
4.363700005E0,2.777273953E-1,-8.619125932E-2,9.816226959E0,9.820533242E0
4.368735400E0,2.202665508E-1,-1.244984865E-1,9.835380554E0,9.838634452E0
4.373770794E0,3.351882398E-1,-9.576806426E-2,9.825803757E0,9.831985666E0
4.378806188E0,2.777273953E-1,-8.619125932E-2,9.911994934E0,9.916259628E0
4.383811065E0,2.298433632E-1,-6.703764945E-2,9.883264542E0,9.886164070E0
4.388846460E0,2.394201756E-1,-7.661445439E-2,9.835380554E0,9.838592503E0
4.393881853E0,2.777273953E-1,-6.703764945E-2,9.873687744E0,9.877820419E0
4.398917247E0,2.394201756E-1,-1.628057212E-1,9.892841339E0,9.897077219E0
4.403922124E0,2.873041928E-1,-8.619125932E-2,9.864110947E0,9.868670498E0
4.408957519E0,2.489969730E-1,-2.873042040E-2,9.873687744E0,9.876868664E0
4.413992913E0,2.585737705E-1,-2.873042040E-2,9.902418137E0,9.905835189E0
4.419028307E0,2.202665508E-1,-5.746084079E-2,9.873687744E0,9.876311496E0
4.424033184E0,2.681505978E-1,-2.873042040E-2,9.854534149E0,9.858223647E0
4.429068579E0,2.585737705E-1,-8.619125932E-2,9.854534149E0,9.858302725E0
4.434103972E0,2.681505978E-1,-8.619125932E-2,9.835380554E0,9.839412804E0
4.439139366E0,2.777273953E-1,-5.746084079E-2,9.883264542E0,9.887332919E0
4.444144243E0,3.256114423E-1,-1.053448766E-1,9.911994934E0,9.917901186E0
4.449179638E0,3.160346150E-1,-4.788403213E-2,9.864110947E0,9.869288502E0
4.454215032E0,2.011129409E-1,-9.576806426E-2,9.806650162E0,9.809179646E0
4.459250426E0,2.394201756E-1,-7.661445439E-2,9.825803757E0,9.829018835E0
4.464255303E0,2.489969730E-1,-7.661445439E-2,9.844957352E0,9.848403654E0
4.469290697E0,2.298433632E-1,-1.053448766E-1,9.816226959E0,9.819482534E0
4.474326091E0,2.681505978E-1,-1.915361360E-2,9.816226959E0,9.819907501E0
4.479330968E0,2.681505978E-1,-5.746084079E-2,9.835380554E0,9.839203074E0
4.484366362E0,3.064578176E-1,-1.053448766E-1,9.873687744E0,9.879004181E0
4.489401757E0,2.968810201E-1,-1.149216816E-1,9.854534149E0,9.859674874E0
4.494437151E0,2.394201756E-1,-6.703764945E-2,9.892841339E0,9.895965129E0
4.499442028E0,2.968810201E-1,-6.703764945E-2,9.864110947E0,9.868805255E0
4.504477421E0,2.298433632E-1,-6.703764945E-2,9.825803757E0,9.828720236E0
4.509512816E0,2.873041928E-1,-7.661445439E-2,9.854534149E0,9.859019057E0
4.514548210E0,3.160346150E-1,-1.244984865E-1,9.864110947E0,9.869957574E0
4.519553087E0,2.777273953E-1,-5.746084079E-2,9.844957352E0,9.849041553E0
4.524588481E0,2.585737705E-1,-5.746084079E-2,9.816226959E0,9.819800093E0
4.529623876E0,2.585737705E-1,-6.703764945E-2,9.825803757E0,9.829434058E0
4.534659270E0,2.968810201E-1,-5.746084079E-2,9.883264542E0,9.887889466E0
4.539664146E0,2.489969730E-1,-1.053448766E-1,9.844957352E0,9.848669062E0
4.544699540E0,2.489969730E-1,-6.703764945E-2,9.911994934E0,9.915348562E0
4.549734935E0,2.777273953E-1,-5.746084079E-2,9.921571732E0,9.925624408E0
4.554739811E0,2.681505978E-1,-7.661445439E-2,9.864110947E0,9.868052457E0
4.559775206E0,2.968810201E-1,-8.619125932E-2,9.854534149E0,9.859381855E0
4.564810600E0,2.681505978E-1,-8.619125932E-2,9.854534149E0,9.858558565E0
4.569845995E0,2.777273953E-1,-1.053448766E-1,9.835380554E0,9.839864872E0
4.574881388E0,2.873041928E-1,-8.619125932E-2,9.864110947E0,9.868670498E0
4.579886265E0,2.873041928E-1,-7.661445439E-2,9.816226959E0,9.820729361E0
4.584921659E0,2.681505978E-1,-9.576806426E-2,9.835380554E0,9.839501355E0
4.589957054E0,2.585737705E-1,-9.576806426E-2,9.797073364E0,9.800952934E0
4.594961930E0,2.489969730E-1,-1.149216816E-1,9.825803757E0,9.829630001E0
4.599997325E0,3.064578176E-1,-1.149216816E-1,9.883264542E0,9.888682490E0
4.605032719E0,2.968810201E-1,-1.915361360E-2,9.921571732E0,9.926030970E0
4.610068113E0,2.202665508E-1,-3.830722719E-2,9.854534149E0,9.857069955E0
4.615072989E0,3.256114423E-1,-1.915361360E-2,9.883264542E0,9.888645391E0
4.620108384E0,2.681505978E-1,-7.661445439E-2,9.787496567E0,9.791468917E0
4.625143778E0,2.585737705E-1,-2.873042040E-2,9.816226959E0,9.819674004E0
4.630179173E0,2.681505978E-1,-1.244984865E-1,9.844957352E0,9.849395406E0
4.635184049E0,2.968810201E-1,-5.746084079E-2,9.902418137E0,9.907034119E0
4.640219444E0,2.681505978E-1,-3.830722719E-2,9.854534149E0,9.858256209E0
4.645254837E0,2.777273953E-1,-5.746084079E-2,9.835380554E0,9.839468731E0
4.650259714E0,2.489969730E-1,-1.244984865E-1,9.835380554E0,9.839319591E0
4.655295108E0,2.298433632E-1,-1.149216816E-1,9.892841339E0,9.896178289E0
4.660330503E0,2.968810201E-1,-5.746084079E-2,9.844957352E0,9.849600263E0
4.665365897E0,2.011129409E-1,-7.661445439E-2,9.902418137E0,9.904756491E0
4.670370774E0,2.394201756E-1,-1.436520964E-1,9.864110947E0,9.868061751E0
4.675406168E0,2.681505978E-1,-9.576806426E-2,9.864110947E0,9.868219750E0
4.680441562E0,2.585737705E-1,-1.149216816E-1,9.844957352E0,9.849022928E0
4.685476956E0,3.351882398E-1,-1.915361360E-2,9.787496567E0,9.793253140E0
4.690481833E0,2.777273953E-1,-1.244984865E-1,9.844957352E0,9.849660788E0
4.695517227E0,3.064578176E-1,-3.830722719E-2,9.825803757E0,9.830656301E0
4.700552622E0,2.394201756E-1,-6.703764945E-2,9.844957352E0,9.848096330E0
4.705557498E0,3.064578176E-1,9.576806799E-3,9.883264542E0,9.888019322E0
4.710592893E0,2.202665508E-1,-1.915361360E-2,9.825803757E0,9.828290985E0
4.715628287E0,3.256114423E-1,-1.053448766E-1,9.892841339E0,9.898759019E0
4.720663681E0,2.298433632E-1,-1.053448766E-1,9.931148529E0,9.934366443E0
4.725668557E0,2.777273953E-1,-7.661445439E-2,9.854534149E0,9.858744625E0
4.730703952E0,2.777273953E-1,-4.788403213E-2,9.854534149E0,9.858563216E0
4.735739346E0,2.394201756E-1,-7.661445439E-2,9.854534149E0,9.857739857E0
4.740774741E0,2.394201756E-1,-1.053448766E-1,9.911994934E0,9.915445685E0
4.745779617E0,2.777273953E-1,-1.053448766E-1,9.816226959E0,9.820720023E0
4.750815012E0,2.968810201E-1,-1.915361360E-2,9.883264542E0,9.887741057E0
4.755850405E0,2.777273953E-1,-5.746084079E-2,9.835380554E0,9.839468731E0
4.760855282E0,3.064578176E-1,-3.830722719E-2,9.911994934E0,9.916805303E0
4.765890676E0,2.489969730E-1,-1.244984865E-1,9.873687744E0,9.877611505E0
4.770926071E0,3.734954596E-1,-7.661445439E-2,9.873687744E0,9.881046417E0
4.775961465E0,2.298433632E-1,-8.619125932E-2,9.835380554E0,9.838443350E0
4.780966342E0,2.585737705E-1,-8.619125932E-2,9.825803757E0,9.829583348E0
4.786001736E0,3.160346150E-1,-1.915361360E-2,9.883264542E0,9.888334680E0
4.791037130E0,2.394201756E-1,-5.746084079E-2,9.825803757E0,9.828888199E0
4.796072524E0,2.489969730E-1,-9.576806426E-2,9.902418137E0,9.906011103E0
4.801077401E0,2.777273953E-1,-6.703764945E-2,9.835380554E0,9.839529318E0
4.806112795E0,3.256114423E-1,-4.788403213E-2,9.883264542E0,9.888742776E0
4.811148190E0,2.106897533E-1,-9.576806426E-2,9.892841339E0,9.895548062E0
4.816183584E0,2.585737705E-1,-1.053448766E-1,9.864110947E0,9.868061750E0
4.821188461E0,2.968810201E-1,-9.576806799E-3,9.854534149E0,9.859009755E0
4.826223854E0,2.873041928E-1,-1.436520964E-1,9.844957352E0,9.850196185E0
4.831259249E0,2.968810201E-1,-1.244984865E-1,9.816226959E0,9.821504464E0
4.836294643E0,2.298433632E-1,-8.619125932E-2,9.844957352E0,9.848017169E0
4.841299520E0,2.106897533E-1,-6.703764945E-2,9.931148529E0,9.933609381E0
4.846334914E0,2.777273953E-1,-2.873042040E-2,9.902418137E0,9.906353663E0
4.851370309E0,2.681505978E-1,-4.788403213E-2,9.883264542E0,9.887017529E0
4.856375186E0,2.106897533E-1,-7.661445439E-2,9.873687744E0,9.876232562E0
4.861410579E0,2.106897533E-1,-3.830722719E-2,9.931148529E0,9.933457038E0
4.866445973E0,3.256114423E-1,-6.703764945E-2,9.854534149E0,9.860139966E0
4.871481368E0,2.777273953E-1,-1.053448766E-1,9.873687744E0,9.878154672E0
4.876486245E0,2.489969730E-1,-5.746084079E-2,9.864110947E0,9.867420433E0
4.881521639E0,3.064578176E-1,-8.619125932E-2,9.844957352E0,9.850103075E0
4.886557033E0,2.202665508E-1,-8.619125932E-2,9.854534149E0,9.857372347E0
4.891592428E0,2.873041928E-1,-4.788403213E-2,9.844957352E0,9.849265040E0
4.896597304E0,2.681505978E-1,-6.703764945E-2,9.892841339E0,9.896701903E0
4.901632698E0,2.968810201E-1,-1.915361360E-2,9.816226959E0,9.820734031E0
4.906668092E0,2.873041928E-1,-2.873042040E-2,9.892841339E0,9.897054051E0
4.911672969E0,2.394201756E-1,-1.149216816E-1,9.883264542E0,9.886832001E0
4.916708364E0,2.585737705E-1,-7.661445439E-2,9.883264542E0,9.886943318E0
4.921743758E0,2.585737705E-1,-6.703764945E-2,9.825803757E0,9.829434058E0
4.926779152E0,2.202665508E-1,-1.053448766E-1,9.931148529E0,9.934149486E0
4.931784029E0,2.394201756E-1,-4.788403213E-2,9.825803757E0,9.828836878E0
4.936819423E0,2.777273953E-1,-1.053448766E-1,9.873687744E0,9.878154672E0
4.941854817E0,2.394201756E-1,-1.915361360E-2,9.854534149E0,9.857460737E0
4.946890211E0,2.298433632E-1,-5.746084079E-2,9.816226959E0,9.819085570E0
4.951895088E0,2.777273953E-1,-5.746084079E-2,9.864110947E0,9.868187221E0
4.956930482E0,2.681505978E-1,-3.830722719E-2,9.873687744E0,9.877402586E0
4.961965877E0,2.681505978E-1,-6.703764945E-2,9.854534149E0,9.858409714E0
4.966970754E0,2.394201756E-1,-8.619125932E-2,9.844957352E0,9.848245337E0
4.972006147E0,2.777273953E-1,-6.703764945E-2,9.864110947E0,9.868247632E0
4.977041541E0,2.968810201E-1,-4.788403213E-2,9.844957352E0,9.849549049E0
4.982076936E0,2.394201756E-1,-6.703764945E-2,9.883264542E0,9.886391357E0
4.987081813E0,2.873041928E-1,-7.661445439E-2,9.806650162E0,9.811156959E0
4.992117207E0,3.064578176E-1,-8.619125932E-2,9.816226959E0,9.821387735E0
4.997152601E0,2.394201756E-1,-8.619125932E-2,9.864110947E0,9.867392549E0
5.002187996E0,2.777273953E-1,-4.788403213E-2,9.816226959E0,9.820271743E0
5.007192872E0,2.202665508E-1,-6.703764945E-2,9.873687744E0,9.876371858E0
5.012228266E0,2.681505978E-1,-8.619125932E-2,9.844957352E0,9.848985680E0
5.017263660E0,2.298433632E-1,-9.576806426E-2,9.921571732E0,9.924695719E0
5.022299055E0,2.968810201E-1,-1.053448766E-1,9.797073364E0,9.802136624E0
5.027303932E0,2.585737705E-1,-1.819593310E-1,9.854534149E0,9.859605108E0
5.032339326E0,2.202665508E-1,-3.830722719E-2,9.921571732E0,9.924090408E0
5.037374720E0,2.968810201E-1,-9.576806426E-2,9.825803757E0,9.830754260E0
5.042379596E0,2.777273953E-1,-7.661445439E-2,9.844957352E0,9.849171921E0
5.047414991E0,2.585737705E-1,-6.703764945E-2,9.873687744E0,9.877300446E0
5.052450385E0,2.585737705E-1,-5.746084079E-2,9.816226959E0,9.819800093E0
5.057485779E0,2.298433632E-1,-3.830722719E-2,9.892841339E0,9.895585136E0
5.062490656E0,2.585737705E-1,-8.619125932E-2,9.902418137E0,9.906168496E0
5.067526051E0,2.968810201E-1,-9.576806426E-2,9.844957352E0,9.849898229E0
5.072561445E0,2.681505978E-1,-7.661445439E-2,9.883264542E0,9.887198416E0
5.077596838E0,2.298433632E-1,-9.576806799E-3,9.892841339E0,9.895515623E0
5.082601715E0,3.160346150E-1,-1.915361360E-2,9.825803757E0,9.830903529E0
5.087637110E0,2.585737705E-1,1.915361360E-2,9.835380554E0,9.838797584E0
5.092672504E0,2.968810201E-1,-6.703764945E-2,9.854534149E0,9.859233017E0
5.097677381E0,2.298433632E-1,-7.661445439E-2,9.844957352E0,9.847938008E0
5.102712775E0,2.394201756E-1,-1.436520964E-1,9.835380554E0,9.839342894E0
5.107748170E0,2.681505978E-1,-1.053448766E-1,9.873687744E0,9.877890056E0
5.112783563E0,2.489969730E-1,-1.340752989E-1,9.835380554E0,9.839445428E0
5.117788440E0,2.394201756E-1,-1.340752989E-1,9.864110947E0,9.867926985E0
5.122823834E0,2.873041928E-1,-8.619125932E-2,9.835380554E0,9.839953419E0
5.127859229E0,2.681505978E-1,-3.830722719E-2,9.816226959E0,9.819963539E0
5.132894623E0,2.968810201E-1,-5.746084079E-2,9.854534149E0,9.859172551E0
5.137899500E0,2.489969730E-1,-1.149216816E-1,9.873687744E0,9.877495439E0
5.142934894E0,2.202665508E-1,-1.244984865E-1,9.854534149E0,9.857781724E0
5.147970288E0,2.106897533E-1,-7.661445439E-2,9.835380554E0,9.837935281E0
5.153005682E0,2.681505978E-1,-6.703764945E-2,9.844957352E0,9.848836685E0
5.158010559E0,2.298433632E-1,-1.244984865E-1,9.864110947E0,9.867573796E0
5.163045953E0,2.202665508E-1,-7.661445439E-2,9.854534149E0,9.857293261E0
5.168081348E0,2.394201756E-1,-9.576806426E-2,9.854534149E0,9.857907326E0
5.173086224E0,2.394201756E-1,-9.576806799E-3,9.844957352E0,9.847872816E0
5.178121619E0,2.681505978E-1,-1.340752989E-1,9.806650162E0,9.811231743E0
5.183157012E0,2.585737705E-1,-4.788403213E-2,9.873687744E0,9.877189020E0
5.188192407E0,2.681505978E-1,-1.244984865E-1,9.864110947E0,9.868540388E0
5.193197283E0,3.064578176E-1,-3.830722719E-2,9.816226959E0,9.821084235E0
5.198232678E0,2.873041928E-1,-9.576806426E-2,9.844957352E0,9.849614230E0
5.203268072E0,2.106897533E-1,-7.661445439E-2,9.844957352E0,9.847509594E0
5.208303467E0,2.873041928E-1,-1.053448766E-1,9.825803757E0,9.830567670E0
5.213308343E0,2.489969730E-1,-8.619125932E-2,9.806650162E0,9.810189388E0
5.218343738E0,3.256114423E-1,-8.619125932E-2,9.787496567E0,9.793290601E0
5.223379131E0,2.968810201E-1,-4.788403213E-2,9.873687744E0,9.878266087E0
5.228384008E0,2.777273953E-1,-1.053448766E-1,9.921571732E0,9.926017110E0
5.233419402E0,2.585737705E-1,-1.436520964E-1,9.797073364E0,9.801537779E0
5.238454797E0,2.489969730E-1,-7.661445439E-2,9.883264542E0,9.886697490E0
5.243490191E0,2.585737705E-1,-6.703764945E-2,9.806650162E0,9.810287551E0
5.248495068E0,2.202665508E-1,-9.576806426E-2,9.787496567E0,9.790443193E0
5.253530462E0,2.106897533E-1,-8.619125932E-2,9.873687744E0,9.876311496E0
5.258565856E0,2.298433632E-1,-4.788403213E-2,9.835380554E0,9.838182327E0
5.263570732E0,2.681505978E-1,-4.788403213E-2,9.854534149E0,9.858298074E0
5.268606127E0,2.777273953E-1,-1.244984865E-1,9.844957352E0,9.849660788E0
5.273641521E0,2.585737705E-1,-4.788403213E-2,9.921571732E0,9.925056116E0
5.278676916E0,3.256114423E-1,-2.873042040E-2,9.816226959E0,9.821667881E0
5.283681792E0,2.202665508E-1,-1.244984865E-1,9.873687744E0,9.876929021E0
5.288717187E0,2.681505978E-1,-8.619125932E-2,9.844957352E0,9.848985680E0
5.293752580E0,2.298433632E-1,-1.915361360E-2,9.844957352E0,9.847658609E0
5.298787975E0,2.968810201E-1,-1.149216816E-1,9.902418137E0,9.907534016E0
5.303792851E0,2.489969730E-1,-1.915361360E-2,9.911994934E0,9.915140439E0
5.308828246E0,3.160346150E-1,-1.532289088E-1,9.892841339E0,9.899074034E0
5.313863640E0,3.064578176E-1,-1.053448766E-1,9.883264542E0,9.888575830E0
5.318899035E0,2.202665508E-1,-7.661445439E-2,9.873687744E0,9.876441505E0
5.323903911E0,2.106897533E-1,-9.576806426E-2,9.873687744E0,9.876399717E0
5.328939305E0,1.915361285E-1,-7.661445439E-2,9.864110947E0,9.866267817E0
5.333974699E0,3.064578176E-1,-6.703764945E-2,9.892841339E0,9.897813910E0
5.338979576E0,2.394201756E-1,-6.703764945E-2,9.883264542E0,9.886391357E0
5.344014970E0,2.777273953E-1,-2.873042040E-2,9.931148529E0,9.935072675E0
5.349050365E0,3.160346150E-1,-3.830722719E-2,9.931148529E0,9.936249616E0
5.354085759E0,3.064578176E-1,-4.788403213E-2,9.835380554E0,9.840270317E0
5.359090636E0,2.777273953E-1,-6.703764945E-2,9.854534149E0,9.858674853E0
5.364126029E0,2.681505978E-1,-9.576806426E-2,9.806650162E0,9.810783030E0
5.369161424E0,2.873041928E-1,-1.915361360E-2,9.854534149E0,9.858739973E0
5.374166301E0,2.394201756E-1,-6.703764945E-2,9.873687744E0,9.876817591E0
5.379201695E0,2.777273953E-1,-4.788403213E-2,9.844957352E0,9.848990336E0
5.384237089E0,2.681505978E-1,-6.703764945E-2,9.835380554E0,9.839263663E0
5.389272484E0,2.298433632E-1,-1.244984865E-1,9.844957352E0,9.848426935E0
5.394277361E0,2.968810201E-1,-4.788403213E-2,9.873687744E0,9.878266087E0
5.399312754E0,2.968810201E-1,-4.788403213E-2,9.864110947E0,9.868693733E0
5.404348148E0,3.351882398E-1,-3.830722719E-2,9.864110947E0,9.869878589E0
5.409383543E0,3.447650373E-1,-6.703764945E-2,9.892841339E0,9.899074034E0
5.414388420E0,2.968810201E-1,-6.703764945E-2,9.835380554E0,9.840088568E0
5.419423814E0,2.489969730E-1,-6.703764945E-2,9.844957352E0,9.848333808E0
5.424459208E0,2.585737705E-1,-8.619125932E-2,9.854534149E0,9.858302725E0
5.429494603E0,2.777273953E-1,-3.830722719E-2,9.864110947E0,9.868094280E0
5.434499479E0,2.489969730E-1,-1.053448766E-1,9.911994934E0,9.915681550E0
5.439534873E0,2.777273953E-1,-4.788403213E-2,9.835380554E0,9.839417464E0
5.444570267E0,2.968810201E-1,-6.703764945E-2,9.835380554E0,9.840088568E0
5.449605662E0,2.489969730E-1,-5.746084079E-2,9.864110947E0,9.867420433E0
5.454610539E0,2.298433632E-1,-6.703764945E-2,9.902418137E0,9.905312058E0
5.459645933E0,2.681505978E-1,-7.661445439E-2,9.864110947E0,9.868052457E0
5.464681327E0,3.064578176E-1,-2.873042040E-2,9.940725327E0,9.945489523E0
5.469716721E0,2.968810201E-1,-4.788403213E-2,9.902418137E0,9.906983202E0
5.474721598E0,2.489969730E-1,-1.149216816E-1,9.892841339E0,9.896641665E0
5.479756992E0,2.777273953E-1,-1.532289088E-1,9.883264542E0,9.888353230E0
5.484792386E0,2.202665508E-1,-1.915361360E-2,9.940725327E0,9.943183808E0
5.489827781E0,2.585737705E-1,-9.576806799E-3,9.806650162E0,9.810063175E0
5.494832658E0,2.489969730E-1,-1.149216816E-1,9.844957352E0,9.848776155E0
5.499868052E0,2.585737705E-1,-9.576806426E-2,9.844957352E0,9.848818060E0
5.504903446E0,2.106897533E-1,-1.053448766E-1,9.806650162E0,9.809478840E0
5.509938840E0,2.489969730E-1,-3.830722719E-2,9.854534149E0,9.857753813E0
5.514943717E0,2.585737705E-1,-8.619125932E-2,9.883264542E0,9.887022167E0
5.519979111E0,2.394201756E-1,-1.244984865E-1,9.864110947E0,9.867801511E0
5.525014505E0,2.394201756E-1,-6.703764945E-2,9.854534149E0,9.857670078E0
5.530049900E0,2.681505978E-1,-7.661445439E-2,9.873687744E0,9.877625433E0
5.535054776E0,2.681505978E-1,-9.576806799E-3,9.873687744E0,9.877332946E0
5.540090171E0,2.681505978E-1,-1.340752989E-1,9.892841339E0,9.897383022E0
5.545125564E0,2.968810201E-1,-9.576806426E-2,9.825803757E0,9.830754260E0
5.550160959E0,2.489969730E-1,-6.703764945E-2,9.816226959E0,9.819613295E0
5.555165835E0,2.777273953E-1,-1.053448766E-1,9.864110947E0,9.868582209E0
5.560201230E0,2.489969730E-1,-7.661445439E-2,9.883264542E0,9.886697490E0
5.565236624E0,2.585737705E-1,-8.619125932E-2,9.864110947E0,9.867875865E0
5.570241501E0,3.064578176E-1,-1.053448766E-1,9.854534149E0,9.859860914E0
5.575276895E0,2.681505978E-1,-1.244984865E-1,9.797073364E0,9.801533101E0
5.580312289E0,3.160346150E-1,-8.619125932E-2,9.864110947E0,9.869548702E0
5.585347683E0,2.394201756E-1,-1.053448766E-1,9.844957352E0,9.848431592E0
5.590352560E0,2.489969730E-1,-1.149216816E-1,9.892841339E0,9.896641665E0
5.595387954E0,2.394201756E-1,-5.746084079E-2,9.864110947E0,9.867183415E0
5.600423349E0,2.968810201E-1,-5.746084079E-2,9.844957352E0,9.849600263E0
5.605458743E0,2.298433632E-1,-6.703764945E-2,9.864110947E0,9.867016103E0
5.610463620E0,2.394201756E-1,-3.830722719E-2,9.940725327E0,9.943681888E0
5.615499013E0,2.681505978E-1,-9.576806426E-2,9.835380554E0,9.839501355E0
5.620534408E0,3.256114423E-1,-1.340752989E-1,9.883264542E0,9.889535732E0
5.625539285E0,2.298433632E-1,-8.619125932E-2,9.864110947E0,9.867164824E0
5.630574679E0,3.160346150E-1,-6.703764945E-2,9.825803757E0,9.831113436E0
5.635610073E0,2.489969730E-1,0.000000000E0,9.873687744E0,9.876826877E0
5.640645468E0,2.681505978E-1,-2.873042040E-2,9.797073364E0,9.800784493E0
5.645650345E0,1.628057212E-1,-1.053448766E-1,9.844957352E0,9.846866938E0
5.650685738E0,2.489969730E-1,-1.628057212E-1,9.902418137E0,9.906885996E0
5.655721132E0,2.873041928E-1,-7.661445439E-2,9.873687744E0,9.878163956E0
5.660726009E0,2.873041928E-1,-8.619125932E-2,9.844957352E0,9.849525770E0
5.665761404E0,2.106897533E-1,-7.661445439E-2,9.835380554E0,9.837935281E0
5.670796798E0,2.681505978E-1,0.000000000E0,9.892841339E0,9.896474852E0
5.675832192E0,2.106897533E-1,-1.340752989E-1,9.854534149E0,9.857697990E0
5.680837069E0,2.585737705E-1,-4.788403213E-2,9.835380554E0,9.838895462E0
5.685872463E0,2.202665508E-1,-3.830722719E-2,9.883264542E0,9.885792978E0
5.690907857E0,2.489969730E-1,-7.661445439E-2,9.883264542E0,9.886697490E0
5.695943251E0,2.011129409E-1,-7.661445439E-2,9.854534149E0,9.856883863E0
5.700948128E0,2.202665508E-1,-1.340752989E-1,9.921571732E0,9.924922124E0
5.705983523E0,3.543418646E-1,-8.619125932E-2,9.825803757E0,9.832568665E0
5.711018917E0,2.489969730E-1,-5.746084079E-2,9.873687744E0,9.876994022E0
5.716054311E0,2.202665508E-1,-5.746084079E-2,9.816226959E0,9.818866066E0
5.721059187E0,2.489969730E-1,-6.703764945E-2,9.835380554E0,9.838760297E0
5.726094582E0,2.873041928E-1,-2.873042040E-2,9.873687744E0,9.877908625E0
5.731129976E0,2.873041928E-1,-9.576806426E-2,9.835380554E0,9.840041965E0
5.736134853E0,2.585737705E-1,-7.661445439E-2,9.844957352E0,9.848650437E0
5.741170247E0,2.489969730E-1,-1.340752989E-1,9.835380554E0,9.839445428E0
5.746205642E0,2.777273953E-1,-7.661445439E-2,9.864110947E0,9.868317336E0
5.751241036E0,2.777273953E-1,-3.830722719E-2,9.854534149E0,9.858521352E0
5.756245913E0,2.489969730E-1,-7.661445439E-2,9.835380554E0,9.838830211E0
5.761281306E0,2.968810201E-1,-7.661445439E-2,9.883264542E0,9.888019322E0
5.766316701E0,2.489969730E-1,-1.340752989E-1,9.864110947E0,9.868163986E0
5.771352095E0,2.681505978E-1,-1.436520964E-1,9.864110947E0,9.868800608E0
5.776356972E0,2.777273953E-1,-4.788403213E-2,9.864110947E0,9.868136103E0
5.781392366E0,2.106897533E-1,-1.436520964E-1,9.864110947E0,9.867406491E0
5.786427761E0,2.202665508E-1,-9.576806799E-3,9.864110947E0,9.866574575E0
5.791463155E0,2.777273953E-1,-9.576806426E-2,9.816226959E0,9.820621963E0
5.796468031E0,2.585737705E-1,-7.661445439E-2,9.864110947E0,9.867796863E0
5.801503425E0,2.873041928E-1,-1.244984865E-1,9.806650162E0,9.811647719E0
5.806538819E0,2.298433632E-1,-2.873042040E-2,9.816226959E0,9.818959473E0
5.811574214E0,2.681505978E-1,-2.873042040E-2,9.892841339E0,9.896516556E0
5.816579091E0,3.160346150E-1,-6.703764945E-2,9.797073364E0,9.802398606E0
5.821614485E0,2.777273953E-1,-9.576806799E-3,9.825803757E0,9.829732636E0
5.826649879E0,2.298433632E-1,-7.661445439E-2,9.892841339E0,9.895807572E0
5.831654755E0,2.394201756E-1,-8.619125932E-2,9.873687744E0,9.876966165E0
5.836690150E0,2.394201756E-1,-1.915361360E-2,9.873687744E0,9.876608656E0
5.841725544E0,2.298433632E-1,-8.619125932E-2,9.873687744E0,9.876738661E0
5.846760938E0,2.873041928E-1,-1.340752989E-1,9.835380554E0,9.840489344E0
5.851765815E0,2.394201756E-1,-5.746084079E-2,9.854534149E0,9.857609602E0
5.856801210E0,2.681505978E-1,-1.149216816E-1,9.854534149E0,9.858851608E0
5.861836604E0,2.106897533E-1,-1.053448766E-1,9.883264542E0,9.886071298E0
5.866871997E0,2.489969730E-1,-8.619125932E-2,9.902418137E0,9.905923146E0
5.871876874E0,2.585737705E-1,-2.873042040E-2,9.844957352E0,9.848394341E0
5.876912269E0,2.202665508E-1,-6.703764945E-2,9.892841339E0,9.895520257E0
5.881947663E0,3.064578176E-1,-9.576806426E-2,9.902418137E0,9.907621958E0
5.886952540E0,2.394201756E-1,-9.576806799E-3,9.806650162E0,9.809577011E0
5.891987934E0,2.681505978E-1,-5.746084079E-2,9.816226959E0,9.820056935E0
5.897023329E0,2.489969730E-1,-1.053448766E-1,9.892841339E0,9.896535090E0
5.902058722E0,2.873041928E-1,-5.746084079E-2,9.864110947E0,9.868461390E0
5.907063599E0,2.394201756E-1,-7.661445439E-2,9.902418137E0,9.905608348E0
5.912098993E0,2.777273953E-1,-1.244984865E-1,9.825803757E0,9.830516357E0
5.917134388E0,2.585737705E-1,-5.746084079E-2,9.892841339E0,9.896386811E0
5.922169782E0,2.873041928E-1,-1.149216816E-1,9.854534149E0,9.859391157E0
5.927174659E0,2.298433632E-1,-1.915361360E-2,9.931148529E0,9.933826349E0
5.932210053E0,2.585737705E-1,-2.873042040E-2,9.777919769E0,9.781380314E0
5.937245447E0,2.777273953E-1,-1.915361360E-2,9.844957352E0,9.848892558E0
5.942250323E0,2.106897533E-1,-4.788403213E-2,9.787496567E0,9.789881107E0
5.947285718E0,2.489969730E-1,-4.788403213E-2,9.892841339E0,9.896090245E0
5.952321112E0,2.777273953E-1,-6.703764945E-2,9.835380554E0,9.839529318E0
5.957356507E0,3.256114423E-1,-4.788403213E-2,9.835380554E0,9.840885445E0
5.962361383E0,2.489969730E-1,-6.703764945E-2,9.892841339E0,9.896201458E0
5.967396778E0,2.585737705E-1,-7.661445439E-2,9.892841339E0,9.896516555E0
5.972432171E0,2.873041928E-1,-8.619125932E-2,9.883264542E0,9.887815261E0
5.977467566E0,2.011129409E-1,-5.746084079E-2,9.921571732E0,9.923776186E0
5.982472442E0,2.873041928E-1,-5.746084079E-2,9.911994934E0,9.916324370E0
5.987507837E0,1.628057212E-1,-5.746084079E-2,9.873687744E0,9.875197067E0
5.992543231E0,2.681505978E-1,-1.053448766E-1,9.825803757E0,9.830026539E0
5.997578626E0,2.681505978E-1,-7.661445439E-2,9.816226959E0,9.820187688E0
6.002583502E0,2.585737705E-1,-1.244984865E-1,9.854534149E0,9.858712064E0
6.007618896E0,3.064578176E-1,-5.746084079E-2,9.883264542E0,9.888181640E0
6.012654290E0,2.202665508E-1,-8.619125932E-2,9.921571732E0,9.924390758E0
6.017659167E0,2.873041928E-1,-5.746084079E-2,9.835380554E0,9.839743701E0
6.022694561E0,2.681505978E-1,-2.873042040E-2,9.854534149E0,9.858223647E0
6.027729956E0,2.489969730E-1,-7.661445439E-2,9.873687744E0,9.877124021E0
6.032765350E0,2.489969730E-1,-6.703764945E-2,9.864110947E0,9.867480849E0
6.037770227E0,2.681505978E-1,-6.703764945E-2,9.864110947E0,9.867982750E0
6.042805621E0,2.298433632E-1,-9.576806426E-2,9.835380554E0,9.838531910E0
6.047841015E0,3.064578176E-1,-5.746084079E-2,9.873687744E0,9.878609609E0
6.052876409E0,2.681505978E-1,-7.661445439E-2,9.854534149E0,9.858479488E0
6.057881286E0,3.064578176E-1,-9.576806426E-2,9.892841339E0,9.898050196E0
6.062916680E0,2.489969730E-1,-2.873042040E-2,9.825803757E0,9.829000173E0
6.067952075E0,2.298433632E-1,-6.703764945E-2,9.902418137E0,9.905312058E0
6.072987469E0,3.064578176E-1,-1.149216816E-1,9.835380554E0,9.840824865E0
6.077992346E0,2.202665508E-1,-2.873042040E-2,9.883264542E0,9.885760506E0
6.083027739E0,2.777273953E-1,-4.788403213E-2,9.902418137E0,9.906427728E0
6.088063134E0,2.489969730E-1,-9.576806426E-2,9.892841339E0,9.896437782E0
6.093098528E0,2.394201756E-1,-1.244984865E-1,9.892841339E0,9.896521190E0
6.098103405E0,2.202665508E-1,-8.619125932E-2,9.854534149E0,9.857372347E0
6.103138799E0,2.681505978E-1,-6.703764945E-2,9.864110947E0,9.867982750E0
6.108174194E0,2.777273953E-1,-5.746084079E-2,9.816226959E0,9.820323109E0
6.113209588E0,2.585737705E-1,-6.703764945E-2,9.883264542E0,9.886873745E0
6.118214464E0,2.489969730E-1,-3.830722719E-2,9.835380554E0,9.838606486E0
6.123249858E0,2.681505978E-1,-1.244984865E-1,9.864110947E0,9.868540388E0
6.128285253E0,3.351882398E-1,-1.915361360E-2,9.873687744E0,9.879394095E0
6.133320647E0,2.777273953E-1,-2.873042040E-2,9.787496567E0,9.791478284E0
6.138325524E0,2.681505978E-1,-7.661445439E-2,9.864110947E0,9.868052457E0
6.143360918E0,2.777273953E-1,-1.053448766E-1,9.873687744E0,9.878154672E0
6.148396313E0,2.489969730E-1,-1.149216816E-1,9.854534149E0,9.858349242E0
6.153431706E0,2.777273953E-1,-7.661445439E-2,9.825803757E0,9.830026538E0
6.158436583E0,3.160346150E-1,-7.661445439E-2,9.902418137E0,9.907756184E0
6.163471977E0,2.681505978E-1,-1.053448766E-1,9.854534149E0,9.858744625E0
6.168507372E0,2.394201756E-1,-1.340752989E-1,9.854534149E0,9.858353894E0
6.173542766E0,2.202665508E-1,-9.576806426E-2,9.892841339E0,9.895756597E0
6.178547643E0,2.298433632E-1,-4.788403213E-2,9.864110947E0,9.866904561E0
6.183583037E0,2.394201756E-1,-3.830722719E-2,9.797073364E0,9.800073263E0
6.188618431E0,2.489969730E-1,-1.053448766E-1,9.816226959E0,9.819949529E0
6.193653825E0,2.777273953E-1,-8.619125932E-2,9.873687744E0,9.877968977E0
6.198658702E0,2.489969730E-1,-9.576806426E-2,9.844957352E0,9.848571281E0
6.203694096E0,2.681505978E-1,-9.576806426E-2,9.854534149E0,9.858646944E0
6.208729491E0,2.489969730E-1,-6.703764945E-2,9.883264542E0,9.886627915E0
6.213764885E0,2.394201756E-1,-6.703764945E-2,9.873687744E0,9.876817591E0
6.218769762E0,2.106897533E-1,-1.053448766E-1,9.892841339E0,9.895645379E0
6.223805155E0,2.202665508E-1,-5.746084079E-2,9.797073364E0,9.799717629E0
6.228840550E0,2.489969730E-1,-8.619125932E-2,9.902418137E0,9.905923146E0
6.233875944E0,2.681505978E-1,-8.619125932E-2,9.911994934E0,9.915996029E0
6.238880821E0,3.064578176E-1,-4.788403213E-2,9.902418137E0,9.907274813E0
6.243916215E0,2.394201756E-1,-1.340752989E-1,9.835380554E0,9.839207735E0
6.248951610E0,2.681505978E-1,-1.149216816E-1,9.825803757E0,9.830133834E0
6.253956486E0,2.777273953E-1,-1.436520964E-1,9.854534149E0,9.859493482E0
6.258991880E0,2.585737705E-1,-2.873042040E-2,9.844957352E0,9.848394341E0
6.264027274E0,2.298433632E-1,-9.576806426E-2,9.883264542E0,9.886400634E0
6.269062669E0,2.968810201E-1,-6.703764945E-2,9.883264542E0,9.887949756E0
6.274067545E0,2.298433632E-1,-3.830722719E-2,9.844957352E0,9.847714490E0
6.279102940E0,2.489969730E-1,-7.661445439E-2,9.816226959E0,9.819683344E0
6.284138334E0,2.585737705E-1,-8.619125932E-2,9.844957352E0,9.848729592E0
6.289173729E0,2.106897533E-1,-6.703764945E-2,9.940725327E0,9.943183808E0
6.294178604E0,3.351882398E-1,-1.244984865E-1,9.844957352E0,9.851448436E0
6.299213999E0,2.681505978E-1,-1.340752989E-1,9.816226959E0,9.820804073E0
6.304249393E0,2.585737705E-1,-8.619125932E-2,9.883264542E0,9.887022167E0
6.309284788E0,3.064578176E-1,-9.576806426E-2,9.902418137E0,9.907621958E0
6.314289664E0,2.585737705E-1,-4.788403213E-2,9.844957352E0,9.848468842E0
6.319325059E0,2.298433632E-1,-8.619125932E-2,9.816226959E0,9.819295729E0
6.324360453E0,2.394201756E-1,-2.873042040E-2,9.835380554E0,9.838336145E0
6.329365330E0,2.489969730E-1,-5.746084079E-2,9.883264542E0,9.886567617E0
6.334400723E0,2.011129409E-1,-5.746084079E-2,9.816226959E0,9.818455066E0
6.339436118E0,2.777273953E-1,-4.788403213E-2,9.844957352E0,9.848990336E0
6.344471512E0,2.298433632E-1,-8.619125932E-2,9.873687744E0,9.876738661E0
6.349476389E0,3.447650373E-1,-9.576806799E-3,9.883264542E0,9.889280694E0
6.354511783E0,2.394201756E-1,-6.703764945E-2,9.806650162E0,9.809801398E0
6.359547178E0,2.777273953E-1,-5.746084079E-2,9.873687744E0,9.877760066E0
6.364552055E0,2.585737705E-1,-1.244984865E-1,9.864110947E0,9.868284807E0
6.369587448E0,2.106897533E-1,-5.746084079E-2,9.854534149E0,9.856953648E0
6.374622842E0,3.256114423E-1,-9.576806426E-2,9.864110947E0,9.869948283E0
6.379658237E0,2.777273953E-1,-9.576806426E-2,9.844957352E0,9.849339535E0
6.384663113E0,2.873041928E-1,-4.788403213E-2,9.787496567E0,9.791829534E0
6.389698508E0,3.064578176E-1,-6.703764945E-2,9.844957352E0,9.849954096E0
6.394733902E0,2.106897533E-1,-9.576806426E-2,9.892841339E0,9.895548062E0
6.399769297E0,2.585737705E-1,-1.053448766E-1,9.825803757E0,9.829769957E0
6.404774172E0,1.915361285E-1,-1.915361360E-2,9.844957352E0,9.846838996E0
6.409809567E0,2.298433632E-1,-9.576806426E-2,9.768342972E0,9.771515947E0
6.414844961E0,2.489969730E-1,-7.661445439E-2,9.816226959E0,9.819683344E0
6.419880356E0,2.681505978E-1,-3.830722719E-2,9.816226959E0,9.819963539E0
6.424885232E0,2.106897533E-1,-8.619125932E-2,9.844957352E0,9.847588759E0
6.429920627E0,2.202665508E-1,-1.915361360E-2,9.816226959E0,9.818716613E0
6.434956021E0,2.873041928E-1,-8.619125932E-2,9.797073364E0,9.801664100E0
6.439960897E0,2.585737705E-1,-9.576806426E-2,9.883264542E0,9.887110292E0
6.444996291E0,2.873041928E-1,-7.661445439E-2,9.835380554E0,9.839874192E0
6.450031686E0,2.873041928E-1,3.830722719E-2,9.806650162E0,9.810932603E0
6.455067080E0,2.011129409E-1,-5.746084079E-2,9.854534149E0,9.856753596E0
6.460071957E0,2.681505978E-1,-5.746084079E-2,9.854534149E0,9.858349243E0
6.465107351E0,2.298433632E-1,-9.576806426E-2,9.806650162E0,9.809810747E0
6.470142746E0,2.011129409E-1,-8.619125932E-2,9.873687744E0,9.876111837E0
6.475178139E0,2.873041928E-1,-6.703764945E-2,9.873687744E0,9.878094321E0
6.480183016E0,2.489969730E-1,-4.788403213E-2,9.844957352E0,9.848222054E0
6.485218410E0,2.968810201E-1,-9.576806426E-2,9.854534149E0,9.859470227E0
6.490253805E0,2.873041928E-1,-4.788403213E-2,9.921571732E0,9.925846171E0
6.495258682E0,2.968810201E-1,-1.149216816E-1,9.844957352E0,9.850103075E0
6.500294076E0,2.585737705E-1,-7.661445439E-2,9.816226959E0,9.819930849E0
6.505329470E0,2.777273953E-1,-5.746084079E-2,9.873687744E0,9.877760066E0
6.510364864E0,2.489969730E-1,-6.703764945E-2,9.844957352E0,9.848333808E0
6.515369741E0,2.489969730E-1,-5.746084079E-2,9.892841339E0,9.896141218E0
6.520405135E0,3.064578176E-1,-1.915361360E-2,9.806650162E0,9.811456092E0
6.525440529E0,2.777273953E-1,-5.746084079E-2,9.902418137E0,9.906478648E0
6.530475924E0,2.968810201E-1,-9.576806426E-2,9.883264542E0,9.888186278E0
6.535480801E0,2.298433632E-1,-5.746084079E-2,9.864110947E0,9.866955685E0
6.540516195E0,2.394201756E-1,-6.703764945E-2,9.873687744E0,9.876817591E0
6.545551588E0,2.298433632E-1,-7.661445439E-2,9.864110947E0,9.867085817E0
6.550556465E0,3.160346150E-1,-3.830722719E-2,9.883264542E0,9.888390330E0
6.555591860E0,2.489969730E-1,-7.661445439E-2,9.911994934E0,9.915417936E0
6.560627254E0,2.585737705E-1,-5.746084079E-2,9.902418137E0,9.905960180E0
6.565662648E0,2.585737705E-1,-1.436520964E-1,9.864110947E0,9.868545034E0
6.570667525E0,2.489969730E-1,-7.661445439E-2,9.864110947E0,9.867550559E0
6.575702920E0,2.011129409E-1,-2.873042040E-2,9.864110947E0,9.866202746E0
6.580738314E0,2.585737705E-1,-6.703764945E-2,9.864110947E0,9.867727155E0
6.585743190E0,2.681505978E-1,-9.576806426E-2,9.825803757E0,9.829928572E0
6.590778584E0,2.202665508E-1,-6.703764945E-2,9.825803757E0,9.828500947E0
6.595813979E0,2.489969730E-1,-1.532289088E-1,9.864110947E0,9.868442803E0
6.600849373E0,2.681505978E-1,-9.576806426E-2,9.883264542E0,9.887365385E0
6.605854250E0,2.489969730E-1,-5.746084079E-2,9.797073364E0,9.800405489E0
6.610889644E0,2.394201756E-1,-1.149216816E-1,9.883264542E0,9.886832001E0
6.615925039E0,2.489969730E-1,-2.873042040E-2,9.854534149E0,9.857721249E0
6.620960432E0,2.873041928E-1,-1.053448766E-1,9.873687744E0,9.878428565E0
6.625965309E0,2.585737705E-1,-6.703764945E-2,9.892841339E0,9.896447049E0
6.631000703E0,2.681505978E-1,-1.532289088E-1,9.816226959E0,9.821084235E0
6.636036098E0,2.489969730E-1,-4.788403213E-2,9.873687744E0,9.876942950E0
6.641040974E0,2.202665508E-1,-5.746084079E-2,9.873687744E0,9.876311496E0
6.646076369E0,1.819593310E-1,-9.576806426E-2,9.854534149E0,9.856679158E0
6.651111763E0,2.394201756E-1,-5.746084079E-2,9.883264542E0,9.886331057E0
6.656147156E0,2.394201756E-1,-1.053448766E-1,9.797073364E0,9.800564579E0
6.661152033E0,2.489969730E-1,-9.576806426E-2,9.902418137E0,9.906011103E0
6.666187428E0,2.489969730E-1,-5.746084079E-2,9.825803757E0,9.829126142E0
6.671222822E0,2.968810201E-1,-5.746084079E-2,9.911994934E0,9.916606459E0
6.676258216E0,2.394201756E-1,-8.619125932E-2,9.883264542E0,9.886539787E0
6.681263093E0,2.585737705E-1,-8.619125932E-2,9.806650162E0,9.810437132E0
6.686298488E0,2.968810201E-1,-3.830722719E-2,9.835380554E0,9.839934778E0
6.691333881E0,2.106897533E-1,-1.915361360E-2,9.911994934E0,9.914252398E0
6.696369275E0,2.681505978E-1,-1.915361360E-2,9.873687744E0,9.877346874E0
6.701374152E0,2.681505978E-1,-8.619125932E-2,9.864110947E0,9.868131457E0
6.706409547E0,2.873041928E-1,-3.830722719E-2,9.825803757E0,9.830077854E0
6.711444941E0,2.489969730E-1,-9.576806426E-2,9.873687744E0,9.877291161E0
6.716480335E0,2.777273953E-1,-8.619125932E-2,9.825803757E0,9.830105844E0
6.721485212E0,2.298433632E-1,-4.788403213E-2,9.854534149E0,9.857330478E0
6.726520606E0,3.256114423E-1,-9.576806426E-2,9.883264542E0,9.889090572E0
6.731556000E0,2.777273953E-1,-7.661445439E-2,9.777919769E0,9.782163222E0
6.736591394E0,2.298433632E-1,-7.661445439E-2,9.835380554E0,9.838364112E0
6.741596271E0,2.681505978E-1,-2.873042040E-2,9.854534149E0,9.858223647E0
6.746631666E0,2.202665508E-1,-3.830722719E-2,9.806650162E0,9.809198346E0
6.751667060E0,3.064578176E-1,-9.576806426E-2,9.950302124E0,9.955480916E0
6.756702454E0,2.873041928E-1,-1.149216816E-1,9.797073364E0,9.801958845E0
6.761707330E0,2.489969730E-1,-5.746084079E-2,9.844957352E0,9.848273275E0
6.766742725E0,2.298433632E-1,-1.053448766E-1,9.835380554E0,9.838629791E0
6.771778119E0,2.489969730E-1,-5.746084079E-2,9.854534149E0,9.857846851E0
6.776813513E0,2.202665508E-1,-5.746084079E-2,9.835380554E0,9.838014523E0
6.781818390E0,3.256114423E-1,-6.703764945E-2,9.806650162E0,9.812283335E0
6.786853785E0,3.064578176E-1,-3.830722719E-2,9.873687744E0,9.878516767E0
6.791889179E0,2.777273953E-1,-6.703764945E-2,9.854534149E0,9.858674853E0
6.796924572E0,2.681505978E-1,-1.244984865E-1,9.854534149E0,9.858967893E0
6.801929449E0,2.106897533E-1,-7.661445439E-2,9.864110947E0,9.866658234E0
6.806964844E0,2.489969730E-1,-6.703764945E-2,9.806650162E0,9.810039803E0
6.812000238E0,2.585737705E-1,-1.244984865E-1,9.883264542E0,9.887430317E0
6.817035632E0,2.585737705E-1,-1.149216816E-1,9.806650162E0,9.810731613E0
6.822040509E0,2.394201756E-1,-1.053448766E-1,9.835380554E0,9.838858176E0
6.827075904E0,2.585737705E-1,-1.053448766E-1,9.911994934E0,9.915926659E0
6.832111297E0,2.585737705E-1,-7.661445439E-2,9.825803757E0,9.829504038E0
6.837146691E0,2.202665508E-1,-1.149216816E-1,9.864110947E0,9.867239184E0
6.842151568E0,2.011129409E-1,9.576806799E-3,9.854534149E0,9.856590761E0
6.847186963E0,2.873041928E-1,9.576806799E-3,9.864110947E0,9.868298748E0
6.852222357E0,2.777273953E-1,-3.830722719E-2,9.892841339E0,9.896813109E0
6.857257751E0,2.968810201E-1,-7.661445439E-2,9.816226959E0,9.821014196E0
6.862262628E0,2.777273953E-1,-5.746084079E-2,9.873687744E0,9.877760066E0
6.867298023E0,2.394201756E-1,-6.703764945E-2,9.844957352E0,9.848096330E0
6.872333416E0,2.873041928E-1,-8.619125932E-2,9.835380554E0,9.839953419E0
6.877368810E0,2.777273953E-1,-4.788403213E-2,9.931148529E0,9.935146526E0
6.882373687E0,2.681505978E-1,-5.746084079E-2,9.892841339E0,9.896641665E0
6.887409082E0,2.777273953E-1,-7.661445439E-2,9.806650162E0,9.810881188E0
6.892444476E0,2.873041928E-1,-1.149216816E-1,9.854534149E0,9.859391157E0
6.897479870E0,2.202665508E-1,-8.619125932E-2,9.825803757E0,9.828650251E0
6.902484747E0,2.394201756E-1,-8.619125932E-2,9.873687744E0,9.876966165E0
6.907520141E0,2.394201756E-1,-1.915361360E-2,9.844957352E0,9.847886785E0
6.912555535E0,2.489969730E-1,-6.703764945E-2,9.844957352E0,9.848333808E0
6.917590929E0,2.873041928E-1,-4.788403213E-2,9.873687744E0,9.877982904E0
6.922595806E0,2.968810201E-1,-3.830722719E-2,9.825803757E0,9.830362417E0
6.927631200E0,2.298433632E-1,-5.746084079E-2,9.911994934E0,9.914825934E0
6.932666595E0,3.064578176E-1,-5.746084079E-2,9.835380554E0,9.840321580E0
6.937701989E0,2.681505978E-1,-4.788403213E-2,9.864110947E0,9.867871219E0
6.942706865E0,2.202665508E-1,-1.915361360E-2,9.921571732E0,9.924034958E0
6.947742259E0,2.585737705E-1,-1.149216816E-1,9.816226959E0,9.820304430E0
6.952777654E0,2.298433632E-1,-6.703764945E-2,9.864110947E0,9.867016103E0
6.957813048E0,2.298433632E-1,-6.703764945E-2,9.864110947E0,9.867016103E0
6.962817925E0,1.723825186E-1,-1.244984865E-1,9.854534149E0,9.856828035E0
6.967853319E0,2.681505978E-1,-7.661445439E-2,9.892841339E0,9.896771407E0
6.972888714E0,3.160346150E-1,-7.661445439E-2,9.844957352E0,9.850326538E0
6.977924107E0,2.777273953E-1,-4.788403213E-2,9.864110947E0,9.868136103E0
6.982928984E0,2.298433632E-1,-2.873042040E-2,9.873687744E0,9.876404360E0
6.987964378E0,2.777273953E-1,9.576806799E-3,9.902418137E0,9.906316630E0
6.992999773E0,2.681505978E-1,-1.149216816E-1,9.835380554E0,9.839706417E0
6.998035167E0,2.394201756E-1,-6.703764945E-2,9.835380554E0,9.838522588E0
7.003040044E0,3.064578176E-1,-1.053448766E-1,9.911994934E0,9.917290835E0
7.008075438E0,2.394201756E-1,-1.149216816E-1,9.921571732E0,9.925125422E0
7.013110832E0,2.873041928E-1,-6.703764945E-2,9.854534149E0,9.858949287E0
7.018146226E0,2.873041928E-1,-1.053448766E-1,9.835380554E0,9.840139831E0
7.023151103E0,2.489969730E-1,-3.830722719E-2,9.883264542E0,9.886474849E0
7.028186497E0,2.489969730E-1,-5.746084079E-2,9.892841339E0,9.896141218E0
7.033221892E0,2.202665508E-1,-2.873042040E-2,9.854534149E0,9.857037389E0
7.038257286E0,2.106897533E-1,-1.340752989E-1,9.854534149E0,9.857697990E0
7.043262163E0,3.064578176E-1,-9.576806426E-2,9.902418137E0,9.907621958E0
7.048297556E0,2.298433632E-1,9.576806799E-3,9.825803757E0,9.828496281E0
7.053332951E0,2.298433632E-1,-1.149216816E-1,9.835380554E0,9.838736993E0
7.058368345E0,2.394201756E-1,-1.053448766E-1,9.873687744E0,9.877151879E0
7.063373222E0,3.064578176E-1,-4.788403213E-2,9.816226959E0,9.821126259E0
7.068408616E0,2.681505978E-1,-4.788403213E-2,9.892841339E0,9.896590695E0
7.073444011E0,2.394201756E-1,-1.149216816E-1,9.873687744E0,9.877258662E0
7.078448888E0,2.298433632E-1,-9.576806426E-2,9.844957352E0,9.848105643E0
7.083484281E0,2.394201756E-1,-8.619125932E-2,9.854534149E0,9.857818940E0
7.088519675E0,3.256114423E-1,-4.788403213E-2,9.864110947E0,9.869599813E0
7.093555070E0,2.298433632E-1,-1.053448766E-1,9.816226959E0,9.819482534E0
7.098559947E0,2.202665508E-1,-7.661445439E-2,9.844957352E0,9.847719146E0
7.103595341E0,2.489969730E-1,-5.746084079E-2,9.883264542E0,9.886567617E0
7.108630735E0,2.106897533E-1,-6.703764945E-2,9.883264542E0,9.885737313E0
7.113666130E0,2.873041928E-1,-8.619125932E-2,9.806650162E0,9.811236417E0
7.118671006E0,2.489969730E-1,-5.746084079E-2,9.854534149E0,9.857846851E0
7.123706400E0,2.968810201E-1,-5.746084079E-2,9.873687744E0,9.878317152E0
7.128741794E0,1.915361285E-1,-1.053448766E-1,9.835380554E0,9.837809425E0
7.133777189E0,2.777273953E-1,-3.830722719E-2,9.844957352E0,9.848948431E0
7.138782066E0,2.394201756E-1,-7.661445439E-2,9.844957352E0,9.848166177E0
7.143817460E0,2.681505978E-1,-8.619125932E-2,9.864110947E0,9.868131457E0
7.148852854E0,2.298433632E-1,-4.788403213E-2,9.844957352E0,9.847756400E0
7.153888248E0,2.585737705E-1,-7.661445439E-2,9.835380554E0,9.839077234E0
7.158893125E0,2.873041928E-1,-1.340752989E-1,9.864110947E0,9.869204864E0
7.163928519E0,2.585737705E-1,-9.576806799E-3,9.816226959E0,9.819636644E0
7.168963913E0,2.394201756E-1,-1.053448766E-1,9.816226959E0,9.819711364E0
7.173999308E0,2.873041928E-1,-6.703764945E-2,9.854534149E0,9.858949287E0
7.179004185E0,2.777273953E-1,-6.703764945E-2,9.902418137E0,9.906538826E0
7.184039579E0,2.298433632E-1,-4.788403213E-2,9.806650162E0,9.809460140E0
7.189074972E0,2.106897533E-1,-2.873042040E-2,9.825803757E0,9.828104348E0
7.194110367E0,2.873041928E-1,-1.340752989E-1,9.825803757E0,9.830917523E0
7.199115243E0,3.064578176E-1,-1.149216816E-1,9.873687744E0,9.879110945E0
7.204150638E0,3.064578176E-1,-1.436520964E-1,9.854534149E0,9.860344599E0
7.209186032E0,2.777273953E-1,-6.703764945E-2,9.873687744E0,9.877820419E0
7.214190909E0,2.202665508E-1,-7.661445439E-2,9.892841339E0,9.895589770E0
7.219226303E0,2.489969730E-1,-8.619125932E-2,9.873687744E0,9.877202949E0
7.224261698E0,2.489969730E-1,-9.576806799E-3,9.816226959E0,9.819389132E0
7.229297091E0,2.873041928E-1,-8.619125932E-2,9.816226959E0,9.820808742E0
7.234301968E0,2.968810201E-1,-9.576806426E-2,9.892841339E0,9.897758313E0
7.239337362E0,2.202665508E-1,-2.873042040E-2,9.844957352E0,9.847463026E0
7.244372757E0,2.585737705E-1,-6.703764945E-2,9.902418137E0,9.906020361E0
7.249408151E0,3.064578176E-1,-7.661445439E-2,9.844957352E0,9.850023930E0
7.254413028E0,2.489969730E-1,-9.576806426E-2,9.844957352E0,9.848571281E0
7.259448422E0,2.394201756E-1,-7.661445439E-2,9.854534149E0,9.857739857E0
7.264483816E0,2.489969730E-1,-1.915361360E-2,9.883264542E0,9.886419188E0
7.269519210E0,2.777273953E-1,-4.788403213E-2,9.844957352E0,9.848990336E0
7.274554605E0,2.394201756E-1,-6.703764945E-2,9.816226959E0,9.819375122E0
7.279559481E0,2.394201756E-1,-7.661445439E-2,9.844957352E0,9.848166177E0
7.284594876E0,2.777273953E-1,-1.053448766E-1,9.892841339E0,9.897299622E0
7.289630270E0,2.681505978E-1,-1.915361360E-2,9.902418137E0,9.906066654E0
7.294665665E0,2.777273953E-1,-1.340752989E-1,9.873687744E0,9.878502840E0
7.299670540E0,2.298433632E-1,-1.053448766E-1,9.883264542E0,9.886498041E0
7.304705935E0,2.489969730E-1,-3.830722719E-2,9.854534149E0,9.857753813E0
7.309741329E0,2.298433632E-1,-2.873042040E-2,9.883264542E0,9.885978526E0
7.314776724E0,1.819593310E-1,-1.053448766E-1,9.797073364E0,9.799329224E0
7.319781600E0,2.585737705E-1,-1.915361360E-2,9.864110947E0,9.867518028E0
7.324816995E0,2.968810201E-1,-7.661445439E-2,9.854534149E0,9.859302785E0
7.329852389E0,2.777273953E-1,-4.788403213E-2,9.892841339E0,9.896854811E0
7.334887783E0,2.489969730E-1,-1.244984865E-1,9.902418137E0,9.906330517E0
7.339892659E0,2.585737705E-1,-7.661445439E-2,9.825803757E0,9.829504038E0
7.344928054E0,3.064578176E-1,-1.053448766E-1,9.883264542E0,9.888575830E0
7.349963448E0,2.968810201E-1,-8.619125932E-2,9.883264542E0,9.888098163E0
7.354998843E0,2.489969730E-1,-9.576806799E-3,9.864110947E0,9.867257774E0
7.360003719E0,3.256114423E-1,-8.619125932E-2,9.864110947E0,9.869860005E0
7.365039114E0,2.202665508E-1,-8.619125932E-2,9.892841339E0,9.895668550E0
7.370074507E0,3.351882398E-1,-9.576806426E-2,9.873687744E0,9.879839692E0
7.375109902E0,3.543418646E-1,-9.576806426E-2,9.921571732E0,9.928359145E0
7.380114778E0,2.777273953E-1,-8.619125932E-2,9.921571732E0,9.925832311E0
7.385150173E0,3.256114423E-1,-2.873042040E-2,9.835380554E0,9.840810886E0
7.390185567E0,2.202665508E-1,-5.746084079E-2,9.883264542E0,9.885885752E0
7.395190444E0,3.160346150E-1,-9.576806799E-3,9.854534149E0,9.859605108E0
7.400225838E0,2.968810201E-1,-6.703764945E-2,9.854534149E0,9.859233017E0
7.405261232E0,2.394201756E-1,-3.830722719E-2,9.883264542E0,9.886238287E0
7.410296626E0,2.394201756E-1,-5.746084079E-2,9.911994934E0,9.915052564E0
7.415301503E0,2.873041928E-1,-1.915361360E-2,9.854534149E0,9.858739973E0
7.420336897E0,2.681505978E-1,-4.788403213E-2,9.825803757E0,9.829578683E0
7.425372292E0,2.394201756E-1,2.873042040E-2,9.844957352E0,9.847910068E0
7.430407686E0,2.489969730E-1,-5.746084079E-2,9.844957352E0,9.848273275E0
7.435412563E0,2.489969730E-1,-8.619125932E-2,9.825803757E0,9.829336086E0
7.440447956E0,2.394201756E-1,-7.661445439E-2,9.864110947E0,9.867313543E0
7.445483351E0,2.777273953E-1,-6.703764945E-2,9.816226959E0,9.820383815E0
7.450518745E0,2.681505978E-1,-1.149216816E-1,9.854534149E0,9.858851608E0
7.455523622E0,3.160346150E-1,-7.661445439E-2,9.854534149E0,9.859898121E0
7.460559016E0,2.202665508E-1,-4.788403213E-2,9.825803757E0,9.828388968E0
7.465594411E0,2.873041928E-1,-7.661445439E-2,9.864110947E0,9.868591502E0
7.470629805E0,2.681505978E-1,-1.723825186E-1,9.806650162E0,9.811829996E0
7.475634681E0,2.873041928E-1,-1.244984865E-1,9.864110947E0,9.869079407E0
7.480670075E0,2.394201756E-1,-1.053448766E-1,9.864110947E0,9.867578443E0
7.485705470E0,2.106897533E-1,-9.576806426E-2,9.892841339E0,9.895548062E0
7.490710346E0,2.106897533E-1,-5.746084079E-2,9.825803757E0,9.828230328E0
7.495745741E0,2.873041928E-1,-6.703764945E-2,9.844957352E0,9.849376782E0
7.500781135E0,3.064578176E-1,-8.619125932E-2,9.854534149E0,9.859674874E0
7.505816530E0,2.681505978E-1,-1.244984865E-1,9.902418137E0,9.906830450E0
7.510821406E0,2.489969730E-1,-7.661445439E-2,9.816226959E0,9.819683344E0
7.515856800E0,2.873041928E-1,-4.788403213E-2,9.854534149E0,9.858837653E0
7.520892194E0,2.394201756E-1,-1.053448766E-1,9.854534149E0,9.858005014E0
7.525927589E0,2.298433632E-1,-4.788403213E-2,9.844957352E0,9.847756400E0
7.530962983E0,2.681505978E-1,-5.746084079E-2,9.806650162E0,9.810483876E0
7.535967860E0,2.394201756E-1,-6.703764945E-2,9.844957352E0,9.848096330E0
7.541003254E0,3.064578176E-1,-9.576806426E-2,9.825803757E0,9.831048132E0
7.546038649E0,2.394201756E-1,-8.619125932E-2,9.873687744E0,9.876966165E0
7.551043524E0,2.873041928E-1,-2.873042040E-2,9.787496567E0,9.791754602E0
7.556078919E0,2.298433632E-1,-1.053448766E-1,9.825803757E0,9.829056159E0
7.561114313E0,3.160346150E-1,-5.746084079E-2,9.835380554E0,9.840624486E0
7.566149708E0,2.585737705E-1,-7.661445439E-2,9.854534149E0,9.858223647E0
7.571154584E0,2.394201756E-1,-4.788403213E-2,9.844957352E0,9.847984573E0
7.576189979E0,2.585737705E-1,-9.576806426E-2,9.806650162E0,9.810525945E0
7.581225373E0,3.064578176E-1,-9.576806426E-2,9.854534149E0,9.859763243E0
7.586260767E0,2.489969730E-1,-3.830722719E-2,9.873687744E0,9.876901164E0
7.591265643E0,2.298433632E-1,-9.576806426E-2,9.816226959E0,9.819384462E0
7.596301038E0,2.585737705E-1,-1.149216816E-1,9.883264542E0,9.887314367E0
7.601336432E0,3.543418646E-1,-9.576806426E-2,9.797073364E0,9.803946970E0
7.606371827E0,2.681505978E-1,-2.873042040E-2,9.835380554E0,9.839077234E0
7.611376703E0,2.489969730E-1,-1.149216816E-1,9.854534149E0,9.858349242E0
7.616412098E0,1.915361285E-1,-8.619125932E-2,9.864110947E0,9.866346831E0
7.621447491E0,3.160346150E-1,-5.746084079E-2,9.892841339E0,9.898054828E0
7.626452368E0,2.681505978E-1,-4.788403213E-2,9.825803757E0,9.829578683E0
7.631487762E0,2.298433632E-1,-5.746084079E-2,9.854534149E0,9.857381651E0
7.636523157E0,2.394201756E-1,-6.703764945E-2,9.892841339E0,9.895965129E0
7.641558551E0,2.873041928E-1,-4.788403213E-2,9.844957352E0,9.849265040E0
7.646563428E0,2.777273953E-1,-5.746084079E-2,9.835380554E0,9.839468731E0
7.651598822E0,2.968810201E-1,-6.703764945E-2,9.835380554E0,9.840088568E0
7.656634216E0,2.681505978E-1,-9.576806426E-2,9.854534149E0,9.858646944E0
7.661669610E0,2.681505978E-1,-8.619125932E-2,9.854534149E0,9.858558565E0
7.666674487E0,2.873041928E-1,-1.149216816E-1,9.844957352E0,9.849819082E0
7.671709881E0,2.489969730E-1,-6.703764945E-2,9.911994934E0,9.915348562E0
7.676745276E0,2.873041928E-1,-6.703764945E-2,9.816226959E0,9.820659319E0
7.681780670E0,2.489969730E-1,-5.746084079E-2,9.854534149E0,9.857846851E0
7.686785547E0,2.489969730E-1,-6.703764945E-2,9.873687744E0,9.877054379E0
7.691820940E0,2.968810201E-1,-1.053448766E-1,9.864110947E0,9.869139813E0
7.696856335E0,2.873041928E-1,-5.746084079E-2,9.902418137E0,9.906751758E0
7.701861212E0,2.777273953E-1,-9.576806426E-2,9.825803757E0,9.830194479E0
7.706896606E0,2.585737705E-1,-8.619125932E-2,9.883264542E0,9.887022167E0
7.711932000E0,2.777273953E-1,-9.576806426E-2,9.883264542E0,9.887629748E0
7.716967395E0,3.064578176E-1,-4.788403213E-2,9.902418137E0,9.907274813E0
7.721972272E0,2.968810201E-1,-6.703764945E-2,9.873687744E0,9.878377501E0
7.727007665E0,3.064578176E-1,-8.619125932E-2,9.825803757E0,9.830959505E0
7.732043059E0,2.777273953E-1,-7.661445439E-2,9.844957352E0,9.849171921E0
7.737078454E0,2.489969730E-1,-2.873042040E-2,9.854534149E0,9.857721249E0
7.742083330E0,3.543418646E-1,-9.576806426E-2,9.883264542E0,9.890078244E0
7.747118725E0,2.777273953E-1,-7.661445439E-2,9.854534149E0,9.858744625E0
7.752154119E0,2.968810201E-1,-6.703764945E-2,9.864110947E0,9.868805255E0
7.757189514E0,2.394201756E-1,-6.703764945E-2,9.883264542E0,9.886391357E0
7.762194389E0,2.489969730E-1,-2.873042040E-2,9.854534149E0,9.857721249E0
7.767229784E0,3.160346150E-1,-4.788403213E-2,9.902418137E0,9.907575673E0
7.772265178E0,2.394201756E-1,-4.788403213E-2,9.892841339E0,9.895853913E0
7.777300573E0,2.585737705E-1,-6.703764945E-2,9.873687744E0,9.877300446E0
7.782305449E0,2.585737705E-1,-1.436520964E-1,9.854534149E0,9.858972544E0
7.787340844E0,2.968810201E-1,-6.703764945E-2,9.864110947E0,9.868805255E0
7.792376238E0,2.585737705E-1,-8.619125932E-2,9.854534149E0,9.858302725E0
7.797411632E0,2.585737705E-1,-1.915361360E-2,9.825803757E0,9.829224116E0
7.802416508E0,2.873041928E-1,-1.244984865E-1,9.835380554E0,9.840363521E0
7.807451903E0,2.106897533E-1,-4.788403213E-2,9.854534149E0,9.856902472E0
7.812487297E0,3.160346150E-1,-8.619125932E-2,9.892841339E0,9.898263311E0
7.817522692E0,2.585737705E-1,-5.746084079E-2,9.864110947E0,9.867666741E0
7.822527568E0,2.489969730E-1,-1.915361360E-2,9.883264542E0,9.886419188E0
7.827562963E0,2.681505978E-1,-2.873042040E-2,9.864110947E0,9.867796864E0
7.832598357E0,2.873041928E-1,-1.053448766E-1,9.797073364E0,9.801851241E0
7.837603233E0,3.160346150E-1,-6.703764945E-2,9.892841339E0,9.898115057E0
7.842638627E0,3.447650373E-1,-6.703764945E-2,9.844957352E0,9.851220342E0
7.847674022E0,2.968810201E-1,-6.703764945E-2,9.835380554E0,9.840088568E0
7.852709416E0,2.489969730E-1,-3.830722719E-2,9.854534149E0,9.857753813E0
7.857744811E0,3.256114423E-1,-3.830722719E-2,9.844957352E0,9.850414992E0
7.862749687E0,2.489969730E-1,-1.244984865E-1,9.864110947E0,9.868038515E0
7.867785082E0,2.489969730E-1,-1.915361360E-2,9.873687744E0,9.876845449E0
7.872820475E0,2.585737705E-1,-4.788403213E-2,9.835380554E0,9.838895462E0
7.877825352E0,2.394201756E-1,-4.788403213E-2,9.892841339E0,9.895853913E0
7.882860746E0,2.681505978E-1,-3.830722719E-2,9.797073364E0,9.800817246E0
7.887896141E0,2.681505978E-1,-7.661445439E-2,9.816226959E0,9.820187688E0
7.892931535E0,2.394201756E-1,-1.244984865E-1,9.844957352E0,9.848655093E0
7.897936412E0,2.968810201E-1,-8.619125932E-2,9.864110947E0,9.868953949E0
7.902971806E0,2.681505978E-1,-4.788403213E-2,9.854534149E0,9.858298074E0
7.908007200E0,2.298433632E-1,-4.788403213E-2,9.931148529E0,9.933923291E0
7.913042594E0,1.436520964E-1,-7.661445439E-2,9.816226959E0,9.817576962E0
7.918047471E0,2.873041928E-1,-6.703764945E-2,9.844957352E0,9.849376782E0
7.923082865E0,3.064578176E-1,-5.746084079E-2,9.854534149E0,9.859465576E0
7.928118260E0,2.585737705E-1,-6.703764945E-2,9.787496567E0,9.791141072E0
7.933153654E0,2.298433632E-1,-5.746084079E-2,9.854534149E0,9.857381651E0
7.938158531E0,2.106897533E-1,-9.576806426E-2,9.921571732E0,9.924270619E0
7.943193924E0,3.064578176E-1,-1.244984865E-1,9.864110947E0,9.869655568E0
7.948229319E0,2.777273953E-1,-1.149216816E-1,9.864110947E0,9.868689086E0
7.953264713E0,2.873041928E-1,-9.576806426E-2,9.806650162E0,9.811325222E0
7.958269590E0,2.873041928E-1,-4.788403213E-2,9.825803757E0,9.830119839E0
7.963304984E0,2.489969730E-1,-5.746084079E-2,9.854534149E0,9.857846851E0
7.968340379E0,2.489969730E-1,-1.340752989E-1,9.864110947E0,9.868163986E0
7.973375773E0,2.777273953E-1,-3.830722719E-2,9.844957352E0,9.848948431E0
7.978380649E0,2.298433632E-1,-9.576806426E-2,9.864110947E0,9.867253126E0
7.983416043E0,2.585737705E-1,-8.619125932E-2,9.864110947E0,9.867875865E0
7.988451438E0,2.011129409E-1,-7.661445439E-2,9.844957352E0,9.847309351E0
7.993486832E0,2.968810201E-1,-6.703764945E-2,9.854534149E0,9.859233017E0
7.998491709E0,2.202665508E-1,-7.661445439E-2,9.864110947E0,9.866867380E0
8.003527103E0,2.585737705E-1,-9.576806426E-2,9.921571732E0,9.925402639E0
8.008562498E0,2.585737705E-1,-4.788403213E-2,9.854534149E0,9.858042228E0
8.013597891E0,2.681505978E-1,-7.661445439E-2,9.835380554E0,9.839333573E0
8.018633285E0,2.394201756E-1,-5.746084079E-2,9.911994934E0,9.915052564E0
8.023638162E0,2.873041928E-1,-4.788403213E-2,9.892841339E0,9.897128187E0
8.028673557E0,2.489969730E-1,-1.915361360E-2,9.816226959E0,9.819403142E0
8.033708951E0,2.394201756E-1,-7.661445439E-2,9.816226959E0,9.819445173E0
8.038744345E0,2.585737705E-1,-4.788403213E-2,9.873687744E0,9.877189020E0
8.043749222E0,2.489969730E-1,-5.746084079E-2,9.864110947E0,9.867420433E0
8.048784616E0,3.160346150E-1,-1.149216816E-1,9.902418137E0,9.908126454E0
8.053820010E0,2.394201756E-1,-9.576806426E-2,9.825803757E0,9.829186793E0
8.058855404E0,2.489969730E-1,-2.873042040E-2,9.825803757E0,9.829000173E0
8.063860281E0,2.968810201E-1,9.576806799E-3,9.892841339E0,9.897299622E0
8.068895676E0,2.681505978E-1,-8.619125932E-2,9.816226959E0,9.820267073E0
8.073931070E0,2.298433632E-1,-7.661445439E-2,9.854534149E0,9.857511909E0
8.078966464E0,2.585737705E-1,-6.703764945E-2,9.902418137E0,9.906020361E0
8.083971340E0,2.489969730E-1,-8.619125932E-2,9.797073364E0,9.800616049E0
8.089006735E0,2.585737705E-1,-7.661445439E-2,9.844957352E0,9.848650437E0
8.094042129E0,2.681505978E-1,-2.873042040E-2,9.864110947E0,9.867796864E0
8.099077523E0,2.202665508E-1,-8.619125932E-2,9.797073364E0,9.799928203E0
8.104082400E0,2.681505978E-1,-7.661445439E-2,9.844957352E0,9.848906527E0
8.109117795E0,2.011129409E-1,-5.746084079E-2,9.911994934E0,9.914201518E0
8.114153189E0,2.298433632E-1,-1.149216816E-1,9.854534149E0,9.857884066E0
8.119158066E0,2.489969730E-1,-1.053448766E-1,9.854534149E0,9.858242254E0
8.124193459E0,2.298433632E-1,-1.244984865E-1,9.835380554E0,9.838853515E0
8.129228854E0,2.585737705E-1,-6.703764945E-2,9.825803757E0,9.829434058E0
8.134264248E0,2.298433632E-1,-2.873042040E-2,9.825803757E0,9.828533608E0
8.139269125E0,2.202665508E-1,-6.703764945E-2,9.864110947E0,9.866797665E0
8.144304519E0,2.873041928E-1,-6.703764945E-2,9.864110947E0,9.868521800E0
8.149339914E0,3.256114423E-1,-2.873042040E-2,9.854534149E0,9.859953932E0
8.154375307E0,2.585737705E-1,-6.703764945E-2,9.883264542E0,9.886873745E0
8.159380184E0,2.585737705E-1,-7.661445439E-2,9.921571732E0,9.925236309E0
8.164415578E0,2.968810201E-1,-4.788403213E-2,9.835380554E0,9.839976721E0
8.169450973E0,2.585737705E-1,0.000000000E0,9.864110947E0,9.867499438E0
8.174486367E0,2.394201756E-1,-7.661445439E-2,9.797073364E0,9.800297868E0
8.179491244E0,2.106897533E-1,-1.436520964E-1,9.864110947E0,9.867406491E0
8.184526638E0,2.873041928E-1,-2.873042040E-2,9.902418137E0,9.906626776E0
8.189562033E0,2.777273953E-1,-7.661445439E-2,9.825803757E0,9.830026538E0
8.194597426E0,2.202665508E-1,-9.576806426E-2,9.844957352E0,9.847886785E0
8.199602303E0,2.777273953E-1,-1.149216816E-1,9.864110947E0,9.868689086E0
8.204637697E0,2.873041928E-1,-7.661445439E-2,9.844957352E0,9.849446621E0
8.209673092E0,3.064578176E-1,-8.619125932E-2,9.854534149E0,9.859674874E0
8.214708486E0,2.298433632E-1,-2.873042040E-2,9.844957352E0,9.847681893E0
8.219713363E0,2.202665508E-1,-8.619125932E-2,9.777919769E0,9.780780199E0
8.224748757E0,2.873041928E-1,-9.576806799E-3,9.864110947E0,9.868298748E0
8.229784151E0,2.681505978E-1,-1.149216816E-1,9.873687744E0,9.877996832E0
8.234819545E0,2.106897533E-1,-7.661445439E-2,9.883264542E0,9.885806894E0
8.239824422E0,2.777273953E-1,-1.149216816E-1,9.892841339E0,9.897406188E0
8.244859816E0,2.298433632E-1,-8.619125932E-2,9.902418137E0,9.905460204E0
8.249895210E0,2.202665508E-1,-6.703764945E-2,9.911994934E0,9.914668677E0
8.254930605E0,2.585737705E-1,-4.788403213E-2,9.864110947E0,9.867615621E0
8.259935482E0,2.106897533E-1,-8.619125932E-2,9.844957352E0,9.847588759E0
8.264970875E0,2.202665508E-1,-8.619125932E-2,9.892841339E0,9.895668550E0
